LINEAR ACCELERATION X,LINEAR ACCELERATION Y,LINEAR ACCELERATION Z,LIGHT (lux),PROXIMITY (i),SOUND LEVEL (dB),YYYY-MO-DD HH-MI-SS_SSS
-9.00E-04,-0.0055,0.0189,50.1338,2,51.246,15:50:20:148
1.00E-04,-0.0293,-0.0123,51,2,58.119,15:50:21:149
-0.0181,0.0054,0.0369,50.1346,2,59.98,15:50:22:148
-0.0057,0.0273,0.0217,50.5666,2,52.075,15:50:23:148
-0.0114,0.0486,-0.021,50.4263,2,47.164,15:50:24:148
-0.0071,0.0039,0.0035,50.1331,2,35.841,15:50:25:148
0.037,-0.0223,0.0423,50.5662,2,43.555,15:50:26:148
-0.008,-0.0127,0.0226,50.1396,2,40.905,15:50:27:149
-0.0276,-0.0353,-0.0703,50.5663,2,61.137,15:50:28:148
-0.0106,0.053,0.0087,50.4329,2,49.153,15:50:29:149
0.0158,-0.0363,0.0311,50.5673,2,59.443,15:50:30:148
0.0245,-0.0257,-0.0245,51.4332,2,68.914,15:50:31:148
-0.0477,-0.0049,-0.034,50.5678,2,60.325,15:50:32:148
-0.0243,0.0122,-0.0349,51,2,61.831,15:50:33:148
8.00E-04,-0.0318,-0.0506,51.1334,2,19.412,15:50:34:148
0.0127,-0.0118,-0.0399,51,2,75.491,15:50:35:149
0.0438,-0.0439,-0.0373,51.5663,2,38.672,15:50:36:149
0.0725,0.0532,-0.0555,50.4339,2,46.667,15:50:37:148
0.0464,-0.0025,-0.0524,50.5659,2,52.169,15:50:38:149
-0.0082,-0.0406,-0.0435,50.5683,2,70.206,15:50:39:148
-0.0153,-0.0134,-0.015,51,2,69.865,15:50:40:149
-0.0557,0.0171,0.0241,51.5688,2,72.3,15:50:41:148
-5.00E-04,-0.0475,-0.0605,50.432,2,72.421,15:50:42:149
-0.0247,-0.0983,0.0105,50.5658,2,72.125,15:50:43:149
-0.0113,-0.0388,-0.0148,51,2,58.74,15:50:44:148
-0.0489,0.0235,0.0589,50.579,2,46.634,15:50:45:148
-0.0119,-0.0046,-0.0344,50.4332,2,50.261,15:50:46:149
-0.0236,-0.0334,-0.021,49.8691,2,51.089,15:50:47:148
-0.0317,0.0109,0.0026,50.4268,2,55.259,15:50:48:149
-0.0271,-0.0139,0.0727,49.8595,2,26.082,15:50:49:148
0.0083,-0.0322,-0.1017,50,2,46.276,15:50:50:148
-0.021,-0.0164,0.0115,49.8672,2,62.737,15:50:51:149
0.044,0.0133,0.0116,50.4265,2,41.699,15:50:52:148
0.0015,-0.003,0.0018,49.8495,2,28.995,15:50:53:148
0.0343,0.0088,-0.043,50.1597,2,33.532,15:50:54:148
-0.0298,0.014,0.0086,49.5721,2,38.708,15:50:55:148
0.0064,0.0181,-0.0035,49.867,2,36.907,15:50:56:148
-0.0043,-0.0092,0.0249,49.4269,2,30.759,15:50:57:149
-0.0188,-0.007,-0.0158,49.868,2,34.249,15:50:58:149
-0.0095,0.0029,0.0281,50,2,32.193,15:50:59:149
0.02,0.004,0.0409,49.5724,2,30.435,15:51:00:148
-0.0186,0.0321,0.0157,49.8633,2,32.943,15:51:01:149
-0.074,-0.0095,0.0345,49.4338,2,44.737,15:51:02:148
-0.0075,-0.008,-0.0366,49.8659,2,46.167,15:51:03:148
-0.0061,0.0042,0.0972,50.4335,2,29.592,15:51:04:149
-0.0172,0.0192,-0.0628,49.4331,2,46.192,15:51:05:148
-0.0068,0.0111,0.0621,50.4343,2,43.51,15:51:06:149
-0.018,0.023,0.0163,50.4336,2,18.091,15:51:07:149
0.0167,-0.0212,0.0191,38.5691,2,42.484,15:51:08:149
-0.016,-0.0245,-0.0467,34.5781,2,44.773,15:51:09:149
-0.0166,0.0169,0.0554,48.4335,2,38.091,15:51:10:149
-0.0042,0.0256,-0.0049,50.5663,2,36.355,15:51:11:148
-0.0061,0.0025,-0.0858,50,2,25.253,15:51:12:148
0.0066,0.0242,0.0337,49.8381,2,33.306,15:51:13:149
-0.0026,-0.0102,-0.015,49.852,2,36.002,15:51:14:148
-0.0093,-0.0248,-0.0212,50,2,40.958,15:51:15:149
-0.0163,-0.0021,0.0297,49.8632,2,60.242,15:51:16:148
0.0078,0.0038,-0.0223,50,2,73.726,15:51:17:149
0.0014,-0.0277,-0.0415,50.4312,2,51.864,15:51:18:149
0.013,0.0628,-0.0608,49.8673,2,57.244,15:51:19:149
0.0103,0.0628,-0.0823,50.4251,2,66.07,15:51:20:148
0.0163,0.0109,-0.0229,49.8615,2,31.642,15:51:21:148
-0.0153,0.0403,0.0166,50,2,58.676,15:51:22:148
-0.0052,0.0239,0.0457,50.4314,2,62.924,15:51:23:149
0.0357,0.0773,0.0122,49.8621,2,36.882,15:51:24:149
0.0088,0.0126,0.0941,50.5686,2,68.851,15:51:25:149
0.0231,-0.0015,0.0512,50.1373,2,60.276,15:51:26:149
-0.0225,0.0091,-0.0209,50.4314,2,52.291,15:51:27:150
-0.0024,-0.0284,-0.0295,50.1376,2,34.531,15:51:28:149
0.0188,-0.0143,-0.0874,50.5687,2,26.7,15:51:29:150
0.0184,-0.0236,0.0262,50.1369,2,46.246,15:51:30:149
0.0214,0.0082,-0.0528,50.5697,2,68.977,15:51:31:148
-0.038,-0.0248,0.0453,50.4276,2,75.122,15:51:32:149
0.0102,0.0148,-0.0784,51,2,70.241,15:51:33:149
0.001,-0.0982,-0.0593,49.8614,2,72.625,15:51:34:149
-0.0047,-0.042,-0.0382,50.4316,2,54.228,15:51:35:149
-0.0165,0.013,0.0692,49.8691,2,53.4,15:51:36:148
0.0126,-0.0368,-0.0167,50.4336,2,58.781,15:51:37:148
0.0105,-0.0016,-0.0025,49.8666,2,53.214,15:51:38:149
0.0118,0.0214,0.0424,50.4322,2,44.395,15:51:39:152
0.011,-0.0117,0.0439,50.4335,2,37.101,15:51:40:148
0.0158,-0.0066,-0.0118,50.5818,2,44.604,15:51:41:149
-0.0286,-0.0033,-0.0035,50.5712,2,42.107,15:51:42:149
0.006,-0.0096,-0.0181,51,2,29.632,15:51:43:149
-0.0142,-0.0227,0.0451,50.5812,2,17.44,15:51:44:149
-0.0215,-0.034,0.0092,50.1533,2,15.952,15:51:45:148
0.0315,-0.0224,-0.0117,50.5719,2,50.083,15:51:46:149
0.0052,-0.0079,0.0386,50.568,2,15.317,15:51:47:149
-0.0067,0.0161,0.0343,50.5665,2,19.628,15:51:48:148
0.0053,0.0422,0.0327,49.8649,2,28.029,15:51:49:150
0.0291,0.0019,0.0075,50.4317,2,29.492,15:51:50:149
-0.0137,-0.0401,0.0415,50.8638,2,34.549,15:51:51:149
0.0058,-0.003,0.0932,51,2,42.245,15:51:52:148
0.018,-0.0096,-0.0267,50.6014,2,30.704,15:51:53:151
0.0101,0.053,-0.0406,50.8457,2,34.073,15:51:54:149
-0.0188,0.0155,0.0229,50.4196,2,52.221,15:51:55:149
0.0119,0.0063,0.0161,51.1434,2,49.899,15:51:56:149
-0.0032,0.0411,-0.0139,51,2,35.55,15:51:57:151
-0.0378,-0.0022,0.0315,50.5732,2,39.368,15:51:58:148
0.0276,-0.0328,-0.0237,51,2,38.918,15:51:59:149
0.0069,-0.0201,-0.0092,50,2,40.233,15:52:00:151
-0.0136,-0.0061,-0.0791,51.5788,2,39.044,15:52:01:148
0.0189,-0.0316,-0.0532,51.4336,2,53.981,15:52:02:148
0.0036,-0.0063,0.0183,51.4271,2,38.608,15:52:03:148
8.00E-04,0.0482,-0.0235,51.406,2,34.625,15:52:04:148
-0.0023,0.0184,-0.0539,51,2,32.103,15:52:05:149
-0.0031,-0.0257,0.0214,51.1471,2,31.03,15:52:06:149
-0.0062,-0.0085,-0.0325,51.1842,2,31.574,15:52:07:182
-0.0023,0.01,-0.0095,51.4257,2,36.266,15:52:08:150
-0.0351,-0.0038,-0.0048,50.8486,2,41.463,15:52:09:149
0.0188,-0.0238,-0.0718,51,2,16.43,15:52:10:150
0.0058,-0.0257,0.0231,50.8392,2,37.228,15:52:11:149
-0.0254,-0.013,-0.0218,50.8673,2,32.849,15:52:12:149
-0.0145,-0.0048,0.0104,51,2,48.884,15:52:13:149
-0.0023,-0.0341,-0.0195,51.8673,2,40.207,15:52:14:150
0.0288,-0.0053,-0.012,50.4201,2,44.371,15:52:15:148
0.0143,-0.0019,0.0074,51.5872,2,37.946,15:52:16:149
4.00E-04,0.0426,-0.0355,51.1328,2,44.501,15:52:17:148
8.00E-04,0.0128,-0.037,51.5819,2,29.051,15:52:18:149
0.0274,0.0099,-0.0306,51.699,2,31.45,15:52:19:150
6.00E-04,-0.0393,0.0293,52,2,30.397,15:52:20:149
0.0105,-0.0079,0.0311,51.1338,2,15.414,15:52:21:149
0.0052,0.0283,0.0448,52,2,16.666,15:52:22:149
0.0067,-0.0313,-0.0171,52.1613,2,15.397,15:52:23:148
-0.0118,0.0039,-0.0124,52.1339,2,15.58,15:52:24:149
0.0245,-0.0203,-0.0216,52.4315,2,16.402,15:52:25:149
-0.0063,-0.0107,0.0177,52.1325,2,15.98,15:52:26:148
-0.0079,-0.039,0.0221,52.5799,2,16.421,15:52:27:184
0.0399,0.0219,-0.0183,52.1552,2,16.619,15:52:28:148
-0.0122,0.0298,0.0224,52.1603,2,15.559,15:52:29:148
8.00E-04,-0.029,0.0399,52.5791,2,19.551,15:52:30:148
-0.0189,-0.0166,0.0132,52.1484,2,32.967,15:52:31:149
0.021,0.0093,-0.035,52.1324,2,38.919,15:52:32:148
-0.0349,-0.0139,-0.029,52.4307,2,40.06,15:52:32:875
-0.0189,-0.0112,-0.0662,52.1434,2,39.011,15:52:33:875
-0.008,0.0078,-0.0537,52.5665,2,48.153,15:52:34:875
0.0086,0.0368,-0.0491,52.5723,2,37.348,15:52:35:875
0.05,-0.0453,-0.0378,52.1636,2,54.012,15:52:36:875
-0.0216,0.0118,0.0151,52.1456,2,23.961,15:52:37:876
0.0068,-0.0118,-0.0016,52.426,2,30.731,15:52:38:875
-0.0102,6.00E-04,-0.0203,52,2,36.132,15:52:39:875
0.0107,0.0183,0.0247,52.1533,2,33.034,15:52:40:874
0.0077,-0.0131,0.0408,51.4336,2,16.289,15:52:41:877
-0.0225,0.0155,0.0306,51.5706,2,39.868,15:52:42:876
0.0049,-0.0335,-0.0595,51.8459,2,24.116,15:52:43:876
-0.0161,0.0065,0.0071,52,2,22.032,15:52:44:876
-0.0165,0.0342,0.0213,51.5802,2,42.54,15:52:45:875
-0.0054,-0.035,0.0563,51.8398,2,39.253,15:52:46:875
-0.009,0.0145,0.0239,52,2,44.673,15:52:47:876
9.00E-04,0.0303,-0.0066,51.8585,2,44.482,15:52:48:875
-0.0138,-0.0011,-0.0241,51.8401,2,32.852,15:52:49:875
-9.00E-04,0.0021,0.0481,52,2,26.513,15:52:50:874
0.0097,-0.0154,0.0416,51.8425,2,25.963,15:52:51:875
-0.0134,-0.0081,-0.0422,51.8647,2,24.487,15:52:52:876
-0.0124,-0.0371,0.0502,52.5662,2,27.197,15:52:53:883
-0.0054,0.0135,-0.0602,51.8642,2,24.786,15:52:54:876
-9.00E-04,-0.0199,-0.0015,51,2,25.221,15:52:55:876
0.0098,0.0201,-0.0495,51.8563,2,25.624,15:52:56:876
-0.0093,-0.0327,0.0363,52.4276,2,23.853,15:52:57:875
0.0215,0.0191,-0.0754,51.8403,2,21.438,15:52:58:876
0.0161,-0.0226,-0.0055,52.4317,2,26.287,15:52:59:875
0.0126,-0.0025,0.0773,51.5685,2,16.218,15:53:00:876
-0.0195,-0.0067,-0.0055,51.8631,2,19.646,15:53:01:875
-0.0016,-0.0547,-0.0269,52,2,35.402,15:53:02:875
0.0117,0.0029,0.0095,52.4316,2,33.572,15:53:03:885
0.0019,0.0107,-0.0367,52,2,18.82,15:53:04:875
-0.0212,0.0071,0.0582,52.5682,2,19.084,15:53:05:875
0.0064,0.0183,-0.043,52.5662,2,16.129,15:53:06:875
0.0116,-0.0138,-0.036,52.7429,2,19.956,15:53:07:874
0.015,-0.0152,0.0177,52.4206,2,19.545,15:53:08:874
-0.0048,0.0442,0.0464,52.5676,2,35.296,15:53:09:875
-0.0027,0.0025,0.0315,52.5689,2,36.345,15:53:10:875
-0.0335,0.0061,-0.0248,52.4273,2,39.017,15:53:11:877
0.0082,-0.0273,-0.0211,51.867,2,38.395,15:53:12:875
0.0058,0.0393,0.041,52.4206,2,28.813,15:53:13:874
0.0122,0.0022,0.068,52.5678,2,23.012,15:53:14:875
0.0075,0.0202,0.0446,52.5687,2,23.444,15:53:15:875
-0.0027,0.014,-0.0464,52.4313,2,21.961,15:53:16:875
7.00E-04,-0.0125,0.0168,52.2937,2,17.264,15:53:17:875
4.00E-04,0.035,-0.0551,52.5717,2,16.946,15:53:18:875
0.0216,-0.0031,-0.0448,52.1383,2,17.069,15:53:19:875
0.0268,0.0162,0.0632,53,2,17.652,15:53:20:875
-0.001,0.0306,0.0794,52.7172,2,17.324,15:53:21:874
-0.0207,0.0125,0.0067,52.572,2,16.915,15:53:22:877
0.0121,0.0065,0.0173,52.1487,2,16.013,15:53:23:877
-0.0121,0.0179,-2.00E-04,53,2,16.996,15:53:24:876
0.0036,0.0071,-0.0157,53,2,32.441,15:53:25:875
0.0065,0.0052,0.0382,52.5717,2,34.849,15:53:26:876
-0.0305,-0.0244,0.0162,52.5827,2,37.276,15:53:27:874
-0.0149,0.0011,-0.0592,52.8484,2,30.758,15:53:28:876
0.018,-0.0161,0.0274,52.4314,2,29.766,15:53:29:875
-0.0029,0.0345,-0.1068,53,2,28.984,15:53:30:875
0.0132,-0.0164,0.0386,52.5685,2,29.152,15:53:31:875
0.0235,0.0224,-0.0053,53,2,30.126,15:53:32:875
0.0138,-0.0103,0.0403,52.1372,2,20.989,15:53:33:875
-0.0229,-0.0108,-0.0324,52.5665,2,20.47,15:53:34:876
0.0248,-0.0303,0.0158,52.4319,2,55.912,15:53:35:875
0.0132,0.0051,-0.0208,52.1445,2,45.171,15:53:36:875
0.0035,0.0032,0.0439,52.4281,2,50.406,15:53:37:875
0.0087,0.025,0.0238,52.573,2,19.93,15:53:38:875
-0.0269,-0.0275,-0.0695,52.5723,2,29.945,15:53:39:875
-0.0074,-0.0144,0.0426,53,2,32.983,15:53:40:875
-0.0095,0.0105,0.0283,52.5698,2,28.855,15:53:41:875
-0.0227,-0.0233,-0.0188,52.1353,2,26.873,15:53:42:875
0.0104,-0.0074,0.0017,52.4274,2,38.053,15:53:43:876
0.0283,0.0134,0.0737,51.8685,2,76.325,15:53:44:875
0.0257,0.0461,0.0165,52.4205,2,33.603,15:53:45:875
0.0039,0.0205,-0.0329,51.8405,2,35.94,15:53:46:874
0.037,-0.0413,-0.0056,52,2,73.687,15:53:47:875
0.0192,0.0132,0.0431,51.86,2,54.693,15:53:48:875
-0.0036,-0.0311,-0.0425,52.8666,2,37.503,15:53:49:874
-0.0176,0.0127,0.0442,52.4324,2,75.49,15:53:50:875
0.0175,0.0015,-0.0335,52.5737,2,25.165,15:53:51:875
-0.0394,0.0141,-0.0029,52.4323,2,43.679,15:53:52:875
0.0289,0.0015,-0.001,52.4322,2,55.701,15:53:53:875
0.0193,0.0127,-0.0138,52.8643,2,56.383,15:53:54:875
0.0129,-2.00E-04,0.0133,52.4324,2,69.233,15:53:55:875
0.0052,-0.0171,-0.0092,52.5678,2,45.52,15:53:56:875
0.0282,0.021,0.0191,52.4323,2,68.531,15:53:57:875
0.0292,0.0265,0.0772,52.4262,2,20.706,15:53:58:875
-0.0658,-0.0329,0.0821,52.4323,2,40.593,15:53:59:875
0.0376,0.0018,-0.0666,52.6149,2,55.266,15:54:00:875
0.0225,-0.0156,-0.0397,52.5676,2,74.08,15:54:01:875
-0.0019,0.0185,-0.0492,52.5672,2,72.097,15:54:02:876
-0.0141,0.0339,0.027,52.1397,2,16.211,15:54:03:875
-0.0109,0.0045,0.0365,52.5678,2,28.8,15:54:04:876
-0.005,-0.0344,0.0013,52.1462,2,39.294,15:54:05:876
0.0187,-0.0384,-0.0443,53,2,55.815,15:54:06:875
0.0257,0.0911,-0.0637,52.1309,2,42.711,15:54:07:875
0.0176,-0.0198,0.0436,53,2,59.001,15:54:08:875
-0.0222,-4.00E-04,-0.0246,52.5655,2,53.949,15:54:09:875
-0.0302,-0.0494,-0.0533,52.4344,2,60.559,15:54:10:875
-0.0099,-0.0119,0.0224,52.5734,2,31.991,15:54:11:875
-0.006,0.0178,0.0403,52.4344,2,26.367,15:54:12:875
-0.0563,-0.0197,0.0269,51.8688,2,54.439,15:54:13:874
-0.0296,0.0063,0.0276,52.4269,2,23.874,15:54:14:876
-0.0329,-0.0459,-0.0427,51.8653,2,63.333,15:54:15:874
0.0262,-0.0403,-0.0253,52.4148,2,17.909,15:54:16:875
0.0011,-0.0163,4.00E-04,51.8545,2,57.743,15:54:17:876
0.012,-0.0134,-0.0105,52,2,59.206,15:54:18:876
0.0219,0.0817,0.0218,52.1335,2,37.302,15:54:19:884
0.012,2.00E-04,0.0476,52.419,2,54.21,15:54:20:875
0.0252,-0.024,-0.0383,52.1519,2,55.801,15:54:21:875
-0.0264,-0.044,0.0094,52.5795,2,59.087,15:54:22:875
0.0463,-0.0675,-0.1059,52.1372,2,61.884,15:54:23:875
0.023,0.0188,0.0079,53,2,51.179,15:54:24:874
-0.0042,0.015,-0.0531,53.4319,2,63.587,15:54:25:876
-0.003,0.1283,0.1316,52.5701,2,61.698,15:54:26:875
0.0288,0.0111,-0.0154,52.4321,2,63.321,15:54:27:875
-0.0023,0.0305,-0.0078,52.5692,2,72.036,15:54:28:875
-0.0077,0.0335,-0.0177,52.4313,2,71.936,15:54:29:875
0.0231,0.0353,-0.0447,52.5691,2,64.739,15:54:30:875
-0.013,-0.0313,-0.1067,51.8645,2,60.843,15:54:31:875
0.0228,0.0057,-0.0434,51.8619,2,67.878,15:54:32:875
0.004,0.0114,0.0168,51.8628,2,67.264,15:54:33:875
4.00E-04,0.0203,-0.0396,52.4344,2,70.698,15:54:34:878
0.0096,-0.0283,-0.0563,51.8666,2,73.27,15:54:35:875
-2.00E-04,0.0367,-0.0322,52.4344,2,67.336,15:54:36:878
-0.0387,0.0399,-0.0535,52,2,50.949,15:54:37:875
0.01,0.013,0.0664,51.8659,2,49.038,15:54:38:875
-0.0127,0.0117,0.0058,52.5676,2,46.85,15:54:39:875
-0.0029,-0.0183,-0.0378,51.8428,2,53.221,15:54:40:875
-0.0215,-0.0693,-0.0354,52.5722,2,62.577,15:54:41:875
-0.0078,0.0355,0.0557,52.5663,2,70.601,15:54:42:875
0.0077,0.0145,-0.027,52.4172,2,71.356,15:54:43:875
-0.0269,0.0203,0.038,51.8304,2,67.42,15:54:44:875
0.0214,-0.0181,-0.0161,52.1684,2,65.721,15:54:45:874
-0.004,0.0144,0.069,52.5825,2,66.588,15:54:46:875
-0.032,0.03,0.0146,53,2,68.16,15:54:47:875
0.0402,-0.0772,0.052,52.1375,2,65.421,15:54:48:875
-0.0316,-0.0279,0.052,52.5731,2,66.971,15:54:49:876
0.0439,0.0383,-0.0065,52.1504,2,62.98,15:54:50:876
-0.0049,0.0491,-0.0163,52.5726,2,64.724,15:54:51:874
-0.0063,-0.0029,-0.0185,52.5902,2,64.464,15:54:52:875
0.0123,0.0376,-0.0466,52.5677,2,62.486,15:54:53:876
0.0308,-0.0238,-0.0253,52.1452,2,70.341,15:54:54:875
0.0375,0.0082,0.0947,53,2,74.536,15:54:55:874
-0.0135,-0.0167,-0.0536,52.1484,2,72.728,15:54:56:877
0.0347,0.0025,-0.1169,52.5803,2,68.309,15:54:57:875
-0.035,0.011,-0.0152,53.1411,2,71.161,15:54:58:883
0.0236,-0.0035,0.0212,52.5803,2,69.113,15:54:59:875
0.0011,-0.0171,0.0584,52.3002,2,69.752,15:55:00:877
0.0048,0.0076,-0.0139,52.4335,2,63.49,15:55:01:875
0.0162,0.004,-0.036,52.4336,2,67.602,15:55:02:875
-0.0049,0.0698,0.0032,52.5853,2,65.101,15:55:03:874
-0.0292,-0.0335,0.0174,53.5662,2,66.13,15:55:04:876
0.0281,0.0105,-0.1307,53.1611,2,72.741,15:55:05:884
-0.0083,0.0246,0.0035,53.145,2,68.43,15:55:06:875
0.0068,0.0249,0.0351,52.8496,2,66.58,15:55:07:875
-0.0188,0.027,0.0491,52.8417,2,69.629,15:55:08:876
0.0158,0.0131,0.0564,53.1626,2,47.093,15:55:09:876
0.0089,-0.0186,0.0029,53,2,21.293,15:55:10:875
0.0257,0.0042,4.00E-04,52.8608,2,25.877,15:55:11:875
0.0052,0.0548,0.0038,53.5718,2,15.355,15:55:12:876
0.0141,-0.0195,-0.012,52.8642,2,70.566,15:55:13:876
-0.0191,-0.006,-0.0096,53.5802,2,75.55,15:55:14:875
-0.006,0.0168,-0.0061,53.1368,2,73.889,15:55:15:875
-0.0121,-0.0187,0.1144,52.5662,2,63.668,15:55:16:877
0.0029,0.0269,-0.0288,52.8634,2,67.746,15:55:17:876
0.0425,0.0072,0.0624,52.5745,2,63.605,15:55:18:875
0.0225,-0.0049,-0.0466,53.5679,2,61.927,15:55:19:875
0.0145,-0.0116,0.0225,53.1436,2,63.356,15:55:20:876
-0.0286,0.0102,0.008,53.5725,2,61.53,15:55:21:879
0.0158,0.0184,-0.0248,53.1444,2,59.435,15:55:22:875
-0.0103,-0.0457,0.0132,54,2,62.465,15:55:23:876
0.0233,0.0138,0.1085,53.1361,2,66.469,15:55:24:875
0.0159,0.0085,0.0082,53.5738,2,54.538,15:55:25:875
0.0039,0.0479,-0.0234,53.1597,2,56.282,15:55:26:875
0.0037,-0.0022,-0.0338,53.5679,2,54.756,15:55:27:874
0.0098,-0.0097,0.0799,52.8593,2,53.445,15:55:28:875
0.0065,0.0284,0.0467,53.5679,2,44.692,15:55:29:875
0.0094,0.0122,0.0132,52.8646,2,62.548,15:55:30:875
0.0032,-0.0118,-0.0435,53.5679,2,59.102,15:55:31:875
0.0175,0.0271,0.0122,53.1344,2,46.161,15:55:32:875
0.0377,-0.0088,0.0418,53,2,56.636,15:55:33:875
-0.0031,0.0259,0.0069,52.8304,2,42.752,15:55:34:876
0.0011,-0.0011,0.0137,53,2,63.718,15:55:35:875
-0.0047,-0.0307,-0.022,52.8429,2,67.866,15:55:36:875
0.0372,0.0136,-0.0355,53,2,59.915,15:55:37:875
0.0323,-0.0307,-0.0178,52.5801,2,59.089,15:55:38:876
-0.0411,-0.0147,0.0438,52.4317,2,59.93,15:55:39:875
-0.0062,0.0087,-0.0019,51,2,59.973,15:55:40:877
-0.0166,-0.0158,0.0418,52.4333,2,18.667,15:55:41:877
-0.007,-1.00E-04,-0.0994,51.8664,2,56.818,15:55:42:876
-0.0395,0.0126,-8.00E-04,52.4189,2,60.555,15:55:43:875
-6.00E-04,0.0177,-0.0197,52.1673,2,61.557,15:55:44:876
-0.0056,-0.0055,0.1022,53,2,50.581,15:55:45:876
-0.0462,-0.0333,0.0351,52.5811,2,61.042,15:55:46:875
0.0419,0.0433,0.0237,52.5793,2,31.799,15:55:47:876
-0.0427,-0.0306,-0.0186,52.1644,2,65.501,15:55:48:887
-0.009,-0.0098,-0.0098,53,2,57.029,15:55:49:876
0.0103,0.0057,-0.0542,53.4218,2,42.509,15:55:50:876
-0.005,-0.0095,-0.0136,52.4315,2,34.305,15:55:51:875
-0.0474,0.0037,-0.0086,53.1328,2,20.635,15:55:52:876
0.0203,-0.0207,0.0372,53.5662,2,57.407,15:55:53:875
-0.0142,0.05,0.0085,53.1366,2,51.51,15:55:54:877
0.0065,1.00E-04,-0.005,53.5683,2,34.945,15:55:55:875
-0.0056,-0.0207,-8.00E-04,52.5822,2,52.421,15:55:56:876
-0.0308,0.0115,0.0589,53.1596,2,48.913,15:55:57:875
0.0063,-0.017,0.0431,53.1328,2,15.472,15:55:58:886
-0.0138,0.0118,5.00E-04,53.58,2,52.799,15:55:59:876
-0.0295,0.0062,-0.0528,53.4242,2,52.16,15:56:00:876
0.017,-0.021,0.0016,53.4155,2,54.473,15:56:01:875
-0.0019,0.0391,-0.0639,53.1602,2,18.472,15:56:02:876
-0.033,0.0014,-0.0446,53.1617,2,64.433,15:56:03:878
0.0151,0.0115,0.0138,53,2,44.867,15:56:04:875
0.0037,-0.0105,5.00E-04,52.8546,2,49.852,15:56:05:875
0.0027,0.0053,-0.0041,53,2,23.023,15:56:06:876
-0.0128,0.013,0.0277,52.5811,2,59.525,15:56:07:875
0.0028,-0.0253,-0.0171,53.1355,2,60.786,15:56:08:876
0.0209,-0.0097,-0.036,53.5664,2,56.866,15:56:09:875
0.0048,0.0065,-0.0152,52.8688,2,71.897,15:56:10:875
0.0042,0.0336,-0.0316,53.4312,2,62.817,15:56:11:875
-0.0075,0.0118,0.026,53.1371,2,46.374,15:56:12:875
-0.0041,0.0292,0.0083,53.5686,2,68.331,15:56:13:875
-0.0071,0.0191,0.0346,52.8612,2,66.68,15:56:14:886
0.0099,0.0245,0.0439,53.5679,2,60.676,15:56:15:875
0.046,-0.0093,0.0272,53.1379,2,57.342,15:56:16:875
-0.0032,-0.0294,-0.0121,53,2,60.044,15:56:17:875
-0.0033,-0.0196,-0.0056,52.869,2,71.764,15:56:18:875
0.0071,-0.0207,0.049,53.5726,2,55.224,15:56:19:875
0.0012,0.0103,-0.0274,52.8671,2,62.466,15:56:20:875
-0.0128,-0.0294,-0.0075,52.8627,2,74.091,15:56:21:875
0.0227,0.0042,-0.0483,53.4296,2,52.16,15:56:22:876
-0.0022,-0.0325,0.0431,52.8554,2,59.547,15:56:23:875
0.0183,-0.02,0.0145,53.5684,2,48.495,15:56:24:876
0.0228,-0.0107,-0.0133,53.5684,2,50.533,15:56:25:875
0.001,-0.0364,-0.035,52.8404,2,29.445,15:56:26:875
0.0075,-0.005,-0.1021,53.1345,2,17.521,15:56:27:877
5.00E-04,0.0163,-0.0411,53,2,68.72,15:56:28:876
9.00E-04,-9.00E-04,0.025,53,2,67.836,15:56:29:877
-0.0216,-9.00E-04,0.006,53.4336,2,73.491,15:56:30:875
0.016,-0.0123,0.028,53.5686,2,70.161,15:56:31:875
0.0323,-0.0291,0.0726,53,2,57.354,15:56:32:875
-0.0242,0.0036,-0.0897,52.4315,2,15.907,15:56:33:874
0.0411,0.0459,0.0546,52.8673,2,15.358,15:56:34:877
-0.0167,-0.0093,-0.0317,53.5722,2,16.074,15:56:35:875
0.0124,0.0552,0.1094,53.1795,2,15.33,15:56:36:876
0.0194,0.0204,0.109,52.8508,2,15.316,15:56:37:876
0.0218,-0.0045,0.039,53,2,15.418,15:56:38:875
0.0245,0.0435,0.0173,53.1548,2,15.349,15:56:39:877
0.0088,0.0268,-0.0595,53.1682,2,15.341,15:56:40:875
0.0157,-0.0152,0.0335,53.1447,2,15.297,15:56:41:875
-0.0272,0.0046,-0.0209,52.8571,2,15.396,15:56:42:875
-0.0102,-0.0117,0.0224,52.573,2,17.022,15:56:43:875
-0.0237,0.0045,-0.0174,53.5719,2,38.481,15:56:44:876
-0.0277,-0.0379,-0.0433,53.4139,2,16.997,15:56:45:876
0.0172,0.0328,0.0014,53.4252,2,15.484,15:56:46:875
0.0142,-0.0137,0.007,53,2,18.154,15:56:47:875
-0.0185,-0.0085,0.0632,53.1554,2,59.159,15:56:48:875
0.0224,0.0274,0.0378,52.8669,2,16.973,15:56:49:876
0.0037,0.0029,0.0347,52.5671,2,15.499,15:56:50:875
-0.0137,0.0056,0.02,52.8673,2,15.45,15:56:51:876
0.0097,-0.0201,-0.023,53.4252,2,15.493,15:56:52:875
0.0039,-0.0308,0.0352,52.8633,2,41.435,15:56:53:876
-0.0283,-0.0399,0.0286,53,2,29.193,15:56:54:875
-0.0215,0.0284,0.0665,53,2,37.046,15:56:55:876
-3.00E-04,-0.0169,-0.0016,52.8434,2,15.397,15:56:56:874
-0.0157,0.0297,-0.066,52.4262,2,15.302,15:56:57:878
0.0085,0.0438,0.0139,53.4296,2,15.851,15:56:58:876
0.0356,0.0105,-0.0077,53.1633,2,15.448,15:56:59:875
0.0177,-0.045,-0.0469,53.5838,2,15.404,15:57:00:875
-0.0398,0.0098,0.0443,52.864,2,15.243,15:57:01:874
-0.0181,0.0148,-0.0071,52.8395,2,15.515,15:57:02:875
0.0369,0.0154,-0.0234,53.5715,2,15.36,15:57:03:876
-0.0352,0.0032,-0.026,52.8645,2,15.33,15:57:04:875
0.0318,-0.019,-0.0304,53.5739,2,15.637,15:57:05:875
-0.0088,0.0346,0.0185,53.419,2,54.159,15:57:06:876
0.0032,-0.0513,-0.0151,52.8662,2,15.661,15:57:07:876
-0.0176,-0.016,-0.0289,53.4294,2,15.487,15:57:08:876
-0.0196,0.0408,-0.0326,53.4323,2,31.058,15:57:09:875
0.0023,0.0141,0.0102,53.4203,2,39.833,15:57:10:875
0.0255,-0.0059,0.0086,52.8637,2,15.339,15:57:11:876
-0.0037,-0.0189,-0.0236,53.5776,2,15.366,15:57:12:875
0.0015,0.006,-0.0705,52.8629,2,15.451,15:57:13:877
-0.0364,-0.0144,0.0528,52.8419,2,15.578,15:57:14:875
-0.0034,0.012,0.008,53.5909,2,16.886,15:57:15:875
-0.0048,-0.0027,-0.0247,53.4255,2,15.607,15:57:16:875
-0.0295,0.0129,-0.0555,53.5673,2,15.469,15:57:17:875
0.0312,0.0107,-0.0433,53.4151,2,37.261,15:57:18:875
0.0079,-0.0182,-0.0031,52.866,2,29.096,15:57:19:875
-0.002,0.0253,0.0369,53.5762,2,15.371,15:57:20:875
0.0174,-0.0103,0.0944,53.4267,2,22.787,15:57:21:875
0.018,0.0442,1.00E-04,53.5803,2,15.429,15:57:22:875
-0.0124,-5.00E-04,0.0235,53.4332,2,15.383,15:57:23:875
9.00E-04,-0.0121,-0.0579,53.4294,2,15.463,15:57:24:875
0.0239,0.0015,0.0295,53.5836,2,15.362,15:57:25:876
-0.0249,-0.0174,-0.0135,54,2,15.404,15:57:26:876
-0.0089,-0.0011,-0.0507,53.1679,2,15.34,15:57:27:875
0.0122,0.071,-0.0674,53.5722,2,15.362,15:57:28:875
0.0207,0.0193,0.0033,53.1418,2,15.522,15:57:29:875
-0.0129,0.035,0.0219,53.1336,2,15.37,15:57:30:877
-6.00E-04,0.0234,-0.0218,54,2,16.861,15:57:31:875
-0.003,-0.0374,0.0044,53,2,35.33,15:57:32:875
0.0321,0.0205,-0.025,53.4195,2,56.66,15:57:33:875
0.0042,-0.0095,0.0297,53.1328,2,52.717,15:57:34:876
-0.0098,0.0011,0.0524,53,2,51.596,15:57:35:875
9.00E-04,-0.0018,-0.0247,53.147,2,31.629,15:57:36:875
0.0039,-0.0132,0.0532,53.5731,2,46.547,15:57:37:886
-0.0064,-0.0224,-0.013,53.4275,2,50.476,15:57:38:875
-0.0222,-5.00E-04,-0.0272,53.1451,2,54.33,15:57:39:875
0.0175,-0.023,0.0295,53.4274,2,60.352,15:57:40:876
0.0212,2.00E-04,-0.0754,53.1478,2,59.937,15:57:41:875
-0.0193,0.0698,0.0297,53.1663,2,60.016,15:57:42:876
0.0137,7.00E-04,0.0708,53.1456,2,62.435,15:57:43:877
0.0235,-0.0084,-0.0349,53.1447,2,57.781,15:57:44:877
0.0084,-0.0161,0.0171,53,2,50.13,15:57:45:875
0.0268,-0.0239,-0.0022,53.1445,2,57.844,15:57:46:876
0.0094,-0.0179,0.0222,53.1493,2,71.705,15:57:47:875
-0.0015,0.0016,-0.0383,53.5722,2,67.889,15:57:48:875
0.0092,-0.0155,-0.0532,53.1444,2,65.377,15:57:49:876
0.0101,-0.0149,-0.0056,52.4177,2,61.158,15:57:50:875
0.0107,0.0044,0.0382,52.8558,2,60.999,15:57:51:875
0.0376,-0.0311,-2.00E-04,52.8307,2,62.189,15:57:52:876
0.0191,-0.0092,-0.0054,53,2,60.59,15:57:53:875
0.0103,0.0267,-0.0065,52.8645,2,62.881,15:57:54:875
-0.0041,-0.0064,-0.0312,53,2,61.371,15:57:55:875
-0.02,0.0328,0.046,52.8534,2,62.786,15:57:56:874
-0.0105,7.00E-04,-0.009,53,2,50.986,15:57:57:876
-0.0422,-0.0084,-0.0164,53.1449,2,48.923,15:57:58:876
0.0102,0.0159,0.0161,53.1329,2,58.904,15:57:59:875
-6.00E-04,0.0338,-0.012,53.431,2,66.109,15:58:00:875
-0.0351,0.0319,0.0619,52.8662,2,62.119,15:58:01:876
-0.0038,-0.0182,-0.0285,53,2,62.311,15:58:02:875
-0.0208,0.0394,-0.0021,53.4312,2,61.776,15:58:03:875
0.0207,0.0288,-0.0091,52.8628,2,65.358,15:58:04:875
-0.004,0.031,-0.0095,53.4201,2,66.866,15:58:05:875
-0.0224,-0.0494,-0.0264,53.5676,2,67.465,15:58:06:875
0.003,0.0045,0.0345,52.4316,2,69.599,15:58:07:875
0.0214,-0.0144,-0.0327,53.4316,2,68.932,15:58:08:875
0.0054,-0.0124,0.0916,53.137,2,69.291,15:58:09:875
0.0065,0.0363,-6.00E-04,52.8627,2,56.075,15:58:10:875
0.0387,0.0413,0.0582,53,2,65.978,15:58:11:876
0.0168,-0.0129,-0.0177,52.8557,2,68.127,15:58:12:875
-0.0061,0.0052,-0.0525,52.862,2,69.354,15:58:13:875
0.0024,-0.0157,0.0491,53,2,61.687,15:58:14:875
0.033,0.0172,-0.04,53.4315,2,68.639,15:58:15:875
-0.012,0.0156,0.033,52.863,2,65.942,15:58:16:876
0.039,-0.0207,0.011,53.5714,2,68.586,15:58:17:875
0.0065,0.016,0.0631,52.8616,2,58.458,15:58:18:876
-0.0296,0.0209,-0.0041,52.8628,2,68.998,15:58:19:875
0.021,0.0281,0.0693,53.5685,2,68.493,15:58:20:875
-0.0286,-0.0245,-0.0751,53.5688,2,63.699,15:58:21:875
0.02,0.0257,7.00E-04,53.581,2,62.484,15:58:22:875
-0.0093,-0.0187,-0.0174,54,2,66.625,15:58:23:875
-0.0033,0.0027,0.0139,54.1494,2,61.458,15:58:24:875
-0.0469,0.023,0.0829,53.5681,2,62.822,15:58:25:875
0.0075,0.0336,-0.0578,54,2,64.772,15:58:26:876
-0.0067,0.0263,-0.0584,53.567,2,65.368,15:58:27:875
-0.0146,-0.016,-0.057,53.425,2,63.423,15:58:28:875
-0.0112,-0.0236,-0.0448,53.568,2,65.722,15:58:29:875
-0.0163,0.0293,0.0816,52.8449,2,65.527,15:58:30:875
-0.0165,-0.0216,0.0174,52.8387,2,67.008,15:58:31:875
-5.00E-04,0.0419,0.0163,53.5688,2,67.478,15:58:32:874
-0.0224,0.0194,-0.0839,54,2,68.082,15:58:33:877
-0.0061,0.0139,-0.0747,53.5686,2,69.601,15:58:34:875
0.0144,-0.0072,0.0022,53.1328,2,71.139,15:58:35:876
0.01,0.036,-0.0652,53.5688,2,67.277,15:58:36:875
0.032,0.044,-0.0468,53.431,2,67.39,15:58:37:875
0.0204,-0.007,0.0218,52,2,67.494,15:58:38:875
8.00E-04,0.023,-0.0036,53,2,64.198,15:58:39:874
-0.0213,-0.0051,0.0197,52.8664,2,68.278,15:58:40:876
0.0011,0.0165,0.0139,52.8386,2,65.566,15:58:41:875
0.0059,-0.0353,0.0686,53,2,70.952,15:58:42:875
0.0164,0.0056,-0.0206,53.4265,2,59.298,15:58:43:877
0.017,-0.0451,0.025,53.4315,2,70.6,15:58:44:876
0.0236,-0.0357,-0.0797,52,2,69.672,15:58:45:875
0.0377,-6.00E-04,0.0028,53.4335,2,70.834,15:58:46:875
0.0259,0.0417,-0.0356,53.58,2,60.401,15:58:47:875
0.0279,0.0434,0.1086,53.58,2,65.375,15:58:48:876
0.0145,0.035,0.031,52.8548,2,64.67,15:58:49:875
0.0229,-0.0047,-0.0251,52,2,67.79,15:58:50:875
0.0043,-0.039,-0.0192,53,2,66.7,15:58:51:875
-0.0219,-0.0082,-0.0516,52,2,67.94,15:58:52:874
0.0049,-0.0158,-0.0573,53.4208,2,70.307,15:58:53:875
0.0421,-1.00E-04,0.0256,53.5655,2,70.762,15:58:54:874
-0.0233,-0.0273,0.0252,53.578,2,66.359,15:58:55:875
-0.0243,-0.0315,0.0399,53.4206,2,72.558,15:58:56:876
0.0177,-0.0385,-0.0093,53.4181,2,68.422,15:58:57:875
-0.0112,-0.0273,0.0579,53.5668,2,71.826,15:58:58:893
0.0278,0.0842,-0.1519,53.5655,2,69.478,15:58:59:874
-0.0043,-0.0271,0.0206,53.5746,2,72.823,15:59:00:875
-0.0378,0.0808,0.1022,53.1427,2,69.936,15:59:01:875
-0.027,0.0815,-0.0342,53,2,69.227,15:59:02:876
0.0431,-0.024,-0.1299,53.4196,2,70.683,15:59:03:876
0.0212,-0.0131,0.0493,52,2,66.037,15:59:04:876
-0.0253,0.015,0.0323,53.431,2,66.649,15:59:05:875
-0.0159,-0.014,0.0018,52.8624,2,61.117,15:59:06:876
-0.0219,-0.0111,0.0801,53.4312,2,66.39,15:59:07:875
-0.0081,0.0202,-0.041,53.4234,2,68.856,15:59:08:875
-0.0095,7.00E-04,0.0395,52.4315,2,65.297,15:59:09:875
-0.0026,-0.0152,-0.0183,53,2,63.298,15:59:10:875
0.0023,-0.0184,0.0846,52.8492,2,66.815,15:59:11:875
0.0152,0.0205,-0.0395,53.5724,2,49.792,15:59:12:875
0.0132,-0.0265,0.0145,53.5685,2,52.419,15:59:13:875
0.0186,0.1772,-0.0461,52.8656,2,62.149,15:59:14:875
0.0045,-9.00E-04,0.0127,52.5669,2,66.286,15:59:15:876
0.005,-0.0201,-0.057,53,2,70.183,15:59:16:877
0.0178,-0.0278,0.1552,52.8395,2,70.969,15:59:17:875
-0.0021,0.017,0.0144,53.4274,2,68.166,15:59:18:875
0.0046,-0.0298,-0.0258,53.567,2,67.843,15:59:19:877
-0.0068,-0.0289,0.0166,53,2,63.545,15:59:20:876
0.0263,-0.0283,-0.0627,52.8619,2,67.887,15:59:21:876
-0.0012,0.0325,0.0251,53.1521,2,68.647,15:59:22:875
-0.0101,0.0397,0.0075,53.166,2,70.302,15:59:23:875
0.049,0.0143,-0.1402,54,2,68.317,15:59:24:876
0.0555,-0.0342,0.2437,53.159,2,64.531,15:59:25:876
-0.0336,0.0466,0.0649,53.5788,2,64.849,15:59:26:875
0.0173,0.067,0.0232,53.5672,2,68.013,15:59:27:876
-0.0082,-0.0029,-0.0313,53.4247,2,68.085,15:59:28:875
-0.0065,0.0426,0.0272,54,2,64.951,15:59:29:877
-0.0126,0.0043,0.0434,53.5669,2,66.615,15:59:30:875
0.0465,0.0637,0.3277,53.4083,2,69.427,15:59:31:875
-0.017,-0.0225,-0.0511,54.1709,2,68.325,15:59:32:876
-7.00E-04,0.0879,-0.189,53.5664,2,64.19,15:59:33:875
0.0359,0.0418,0.0537,53.5663,2,68.842,15:59:34:875
-0.0074,-0.003,0.0116,53.5702,2,68.872,15:59:35:875
0.0206,-0.0023,-0.0783,54,2,68.291,15:59:36:876
-0.0052,0.0268,0.1946,53.1328,2,65.428,15:59:37:875
-0.0201,-0.0605,0.3399,54,2,66.833,15:59:38:876
0.0311,-0.1052,0.5331,52.8665,2,65.947,15:59:39:874
-6.00E-04,0.0146,0.0167,52.8473,2,65.215,15:59:40:875
0.006,-0.0492,0.0591,53.4315,2,61.39,15:59:41:875
-0.017,-0.0029,-0.0278,52.8563,2,62.283,15:59:42:875
0.0149,0.0011,0.0254,53,2,63.834,15:59:43:876
-0.0113,0.0051,0.035,53.4342,2,63.85,15:59:44:875
0.0091,-0.0013,-0.091,52.8499,2,65.939,15:59:45:875
-0.0134,0.012,0.0114,53.1492,2,65.022,15:59:46:875
-0.0232,-0.0247,-0.0862,53.58,2,65.717,15:59:47:875
-0.1676,-0.0629,0.7513,52.8628,2,69.794,15:59:48:876
0.0398,0.0071,-0.1222,53.5687,2,69.888,15:59:49:875
0.012,0.0164,-0.0402,52.8622,2,68.548,15:59:50:875
0.0291,-0.0116,0.0459,53,2,66.799,15:59:51:875
0.0279,0.0081,-0.0449,52.8631,2,66.082,15:59:52:875
0.0271,-0.0333,-3.00E-04,53.5685,2,15.458,15:59:53:875
0.0353,0.0014,-0.0085,52.569,2,15.477,15:59:54:875
0.0307,0.0198,-0.0628,52.5687,2,45.123,15:59:55:876
-0.0203,-0.0092,-0.0097,53,2,15.615,15:59:56:875
0.0118,-0.0264,9.00E-04,52.4345,2,15.613,15:59:57:875
-0.0136,0.0015,-0.0267,52.5671,2,15.642,15:59:58:875
-0.0156,0.0029,0.0282,52.5663,2,15.606,15:59:59:874
-9.533,3.461,2.6844,53,2,68.751,16:00:00:875
-0.5815,-0.397,0.1532,52.5683,2,77.05,16:00:01:875
-0.1506,-0.0713,0.0462,52.6994,2,75.029,16:00:02:875
-4.5322,4.2223,1.1266,53,2,74.44,16:00:03:875
-0.5028,-0.1038,-0.0323,53.1337,2,77.92,16:00:04:875
-10.8468,2.5745,2.7721,54,2,77.252,16:00:05:875
0.2496,-0.0163,-0.0999,53.1318,2,77.153,16:00:06:874
-4.9835,5.0774,0.7118,49.1343,2,78.144,16:00:07:875
-0.2695,0.9078,1.0837,44.1074,2,76.47,16:00:08:875
-6.7078,-4.6174,0.6046,209.7349,2,72.106,16:00:09:874
0.3671,-0.7966,-1.3384,10.6986,2,15.588,16:00:10:883
-0.0883,-0.0204,1.1551,25.5989,2,15.62,16:00:11:883
0.7516,-0.0498,0.0824,35.2672,2,67.184,16:00:12:883
-1.7467,0.0825,-4.8306,13.4694,2,64.665,16:00:13:883
-0.0527,-0.0628,-0.5315,3,2,67.306,16:00:14:884
0.1932,1.3289,-0.4936,5,2,57.069,16:00:15:884
0.1123,-0.0579,0.4793,6.4339,2,19.017,16:00:16:900
0.1027,0.0302,-0.1287,4.5662,2,15.762,16:00:17:884
4.3556,-0.532,-0.5116,4.5662,2,65.488,16:00:18:884
0.3505,0.9461,0.0277,5.8679,2,45.696,16:00:19:883
-0.3254,-0.8165,1.9753,11.5663,2,45.845,16:00:20:884
-0.0661,-0.0251,-0.569,38,2,56.752,16:00:21:883
-0.3158,0.1068,0.009,48.8534,2,28.387,16:00:22:886
-0.0318,-0.0206,-0.0286,48.8477,2,38.778,16:00:23:884
-0.0082,-0.0436,0.0107,48.8619,2,16.091,16:00:24:885
-0.0033,0.0081,0.0367,48.8395,2,58.833,16:00:25:884
-0.0223,0.0267,-0.0046,48.8399,2,52.686,16:00:26:884
0.0021,-0.0415,0.0158,49.1491,2,51.638,16:00:27:884
-0.0234,-0.0289,0.0217,48.5713,2,15.687,16:00:28:884
-0.0325,-0.0128,0.0199,48.8582,2,17.063,16:00:29:884
-0.0048,0.0292,-0.0477,48.4282,2,15.764,16:00:30:884
0.0263,-0.0169,0.0071,48.8546,2,52.458,16:00:31:884
0.0287,0.0091,0.0109,48.8638,2,15.742,16:00:32:887
-0.0066,0.0212,-0.0063,48.5735,2,53.347,16:00:33:884
-0.0371,0.033,-0.0483,48.8666,2,35.657,16:00:34:883
-0.0195,-0.0053,0.0271,48.4263,2,15.406,16:00:35:884
0.0066,-0.0023,0.0598,48.4142,2,46.911,16:00:36:884
0.0114,-0.0164,-0.0234,48.4142,2,15.474,16:00:37:883
0.0048,-0.0032,0.0339,48,2,15.466,16:00:38:883
0.0172,-0.0316,-0.0136,48.4344,2,15.45,16:00:39:884
-0.0278,0.0018,0.0539,49.1439,2,15.399,16:00:40:888
-0.0385,-0.0236,-0.0113,48.861,2,15.479,16:00:41:885
-0.0329,0.0828,-0.0119,49,2,62.717,16:00:42:883
-0.0339,0.002,-0.0445,48.5725,2,62.252,16:00:43:883
0.027,0.0079,-0.0063,49,2,15.503,16:00:44:884
-0.0203,-0.048,0.018,49.1591,2,15.559,16:00:45:885
-0.0108,0.0327,0.0673,48.8551,2,33.029,16:00:46:885
-0.0061,0.0155,-0.021,48.5667,2,15.509,16:00:47:883
0.0058,0.0159,-0.0472,48.5726,2,40.432,16:00:48:891
0.019,0.0068,0.006,48.5776,2,43.236,16:00:49:884
0.0121,0.0353,-0.0514,48.5725,2,44.394,16:00:50:883
-0.0182,0.0361,-0.0134,48.5717,2,15.566,16:00:51:903
-0.0019,-0.0324,0.0362,48.1582,2,15.604,16:00:52:884
-0.0208,0.0228,-0.0999,48.5725,2,15.61,16:00:53:884
-0.0076,0.0469,0.0448,48.4277,2,15.626,16:00:54:885
-0.0056,-0.0385,-0.0328,48,2,15.598,16:00:55:884
0.0309,-0.0033,-0.0029,48,2,50.024,16:00:56:883
-0.0129,0.0134,-0.0854,47.8446,2,53.577,16:00:57:886
-0.0139,-0.0135,-0.0141,48,2,47.224,16:00:58:885
0.0073,-0.0077,-0.0419,47.8639,2,15.682,16:00:59:884
0.025,0.0128,0.0011,48.4069,2,15.635,16:01:00:884
-0.0305,0.0049,-0.0036,48.5746,2,15.623,16:01:01:884
0.0177,0.0315,0.0781,49,2,15.615,16:01:02:883
-0.0234,0.0256,-0.0048,48.149,2,15.546,16:01:03:884
0.0016,-0.0172,0.0108,48.4241,2,15.591,16:01:04:884
0.0112,0.0091,0.0013,47.8651,2,15.56,16:01:05:884
0.0405,-0.029,-0.0163,48.4337,2,15.703,16:01:06:883
0.0087,-0.0269,0.0284,48.4335,2,15.532,16:01:07:883
0.0229,0.0171,-0.0185,48.1639,2,15.604,16:01:08:887
0.0057,0.0124,-0.0108,48.573,2,15.666,16:01:09:884
-0.0044,0.0032,0.0117,48.5665,2,33.694,16:01:10:884
-0.0026,0.0248,-0.0287,48.1373,2,17.666,16:01:11:885
-0.0132,-0.0166,-0.0554,49,2,15.821,16:01:12:885
-0.0513,0.0103,-0.0187,48.5741,2,66.049,16:01:13:884
-0.0335,0.0209,0.0127,49.5813,2,67.849,16:01:14:883
-0.0371,-0.0262,-0.0221,48.5702,2,60.292,16:01:15:888
0.0023,-0.0064,-0.0569,48.5867,2,57.468,16:01:16:886
0.0201,-0.0178,-0.0194,48.5669,2,62.08,16:01:17:884
-0.0368,0.0251,-0.0521,48.1324,2,69.599,16:01:18:884
-7.00E-04,0.0363,-0.0222,49,2,52.902,16:01:19:884
-0.0069,-0.0022,-0.0554,48.5728,2,57.891,16:01:20:884
0.0129,0.0475,0.0201,49,2,55.901,16:01:21:884
-8.3804,4.5604,2.2243,48.5662,2,76.66,16:01:22:884
0.1998,-0.08,0.0335,48.567,2,77.333,16:01:23:884
0.0275,-0.0266,0.0427,49,2,74.935,16:01:24:883
0.1217,-0.1668,0.1476,49.1342,2,70.301,16:01:25:883
-0.0207,0.04,0.0451,49,2,56.882,16:01:26:883
-0.0019,0.0391,0.0012,48.5675,2,67.367,16:01:27:884
-5.00E-04,-0.013,8.00E-04,49.1501,2,66.967,16:01:28:884
-0.0171,0.017,0.0447,49,2,58.86,16:01:29:884
-0.014,-0.0261,-0.0066,49.1342,2,66.462,16:01:30:884
-0.0208,0.0466,0.0186,49,2,65.329,16:01:31:883
0.0118,-0.0245,0.0129,49.1401,2,66.949,16:01:32:885
-0.0091,0.0486,-0.0229,48.5673,2,65.494,16:01:33:884
0.011,-0.0267,-0.0312,48.5675,2,68.657,16:01:34:884
-0.0163,-0.0199,0.0249,49.1393,2,62.972,16:01:35:883
-0.0059,-0.0021,0.0654,49,2,55.796,16:01:36:883
7.00E-04,0.026,0.0133,49.1352,2,60.512,16:01:37:883
-0.0092,-0.0205,-0.0273,49.5674,2,50.96,16:01:38:884
-0.0172,-0.0086,0.0432,49.1359,2,53.253,16:01:39:884
0.0062,0.0082,-0.0194,49.5673,2,62.341,16:01:40:885
0.0018,0.0119,0.0032,49.1353,2,62.689,16:01:41:883
-0.0194,-0.044,0.0987,49.1359,2,59.841,16:01:42:884
0.0156,0.0498,-0.0266,49,2,66.989,16:01:43:883
-0.0064,0.0066,-0.003,49.135,2,59.723,16:01:44:883
-0.0039,0.005,0.0193,49,2,52.624,16:01:45:883
0.006,0.0294,-0.0049,49.1348,2,57.075,16:01:46:884
-0.0159,0.0372,0.0275,49,2,60.617,16:01:47:884
0.0336,-0.0159,0.0171,49.4331,2,59.86,16:01:48:883
0.0217,0.0063,-0.0132,48.5661,2,31.792,16:01:49:991
0.0178,0.0044,-0.0428,49,2,48.708,16:01:50:992
-0.0264,-0.0517,0.0444,48.5727,2,68.692,16:01:51:992
0.0086,-0.0365,0.0567,48.4262,2,57.36,16:01:52:992
-0.0205,0.0025,0.0034,48.5659,2,58.889,16:01:54:011
-0.0196,-0.0055,0.0602,48.5685,2,57.902,16:01:54:991
-0.0288,-0.0015,-0.0368,49,2,60.165,16:01:55:991
0.0395,-0.041,-0.0043,48.1553,2,56.108,16:01:56:991
-0.025,0.0294,0.0113,48.5839,2,63.13,16:01:57:992
0.0165,-0.0108,0.0223,48.43,2,67.705,16:01:58:992
-0.0103,0.007,-0.0618,48.5662,2,64.892,16:01:59:998
0.0384,0.0277,-0.0065,47.8645,2,65.18,16:02:00:992
0.005,-0.0162,0.0278,48.4313,2,66.029,16:02:01:991
0.0078,-0.0184,-0.0441,48.5795,2,59.385,16:02:02:992
-0.0144,-0.0088,0.06,47.8433,2,62.215,16:02:03:991
0.0091,0.0047,-0.0225,48,2,60.058,16:02:04:992
8.00E-04,0.0124,-0.0903,47.8578,2,23.658,16:02:05:991
-0.0268,0.0182,0.0678,48.4339,2,15.458,16:02:06:993
-0.0169,0.0309,-0.0646,48.1335,2,44.87,16:02:07:991
-0.0139,-0.0289,-0.0329,48.5812,2,53.941,16:02:08:994
0.023,0.0023,0.0891,48.4301,2,45.718,16:02:09:992
0.0171,0.0179,-0.0518,47.8341,2,37.715,16:02:10:992
-0.0039,0.0055,0.1033,48.4294,2,15.521,16:02:11:992
-0.0037,0.0023,0.0266,48.1325,2,47.521,16:02:12:991
-0.0206,-0.0219,-0.0705,47.5666,2,57.292,16:02:13:993
-0.0207,0.0083,0.0558,48.4321,2,62.038,16:02:14:994
-0.0165,0.0128,-0.0144,48.1394,2,63.451,16:02:15:991
-0.0134,-0.0069,0.0561,48.4332,2,60.908,16:02:16:992
-0.0066,0.014,0.0374,47.838,2,63.193,16:02:17:992
-9.00E-04,0.0198,-0.1225,48,2,59.085,16:02:18:992
-0.0084,0.022,-0.0397,47.8409,2,54.089,16:02:19:991
-0.0046,-0.0181,0.0018,49,2,35.061,16:02:20:992
-0.0138,0.029,-0.0492,48.1445,2,44.67,16:02:21:991
-0.0145,-0.0044,0.0071,48.4263,2,48.833,16:02:22:991
0.0068,0.0409,-0.0461,48.5693,2,61.388,16:02:23:992
0.021,-0.0107,-0.0056,47.8676,2,62.412,16:02:24:991
-0.0298,-0.0222,-0.0092,48.4133,2,67.057,16:02:25:991
-0.0074,0.0085,-0.0012,47.8676,2,49.949,16:02:26:992
-0.0276,0.0244,-0.0148,47.8487,2,56.514,16:02:27:992
-0.0194,0.0266,-0.0158,48.569,2,62.529,16:02:28:991
-0.0146,-0.0331,-0.0157,48.5664,2,68.386,16:02:29:992
0.0014,0.0064,0.0405,48.1617,2,66.419,16:02:30:992
0,0.0293,-0.0326,48.4336,2,57.316,16:02:31:994
-0.0038,-0.0033,-0.0082,48,2,61.76,16:02:32:992
-0.0234,0.0193,-0.0224,48.133,2,61.561,16:02:33:992
-0.0177,0.0126,-0.0155,48.4322,2,57.08,16:02:34:992
-0.0236,0.0075,-0.0057,48.4197,2,66.95,16:02:35:993
-0.0118,0.0141,-0.0203,48,2,60.539,16:02:36:991
-0.0196,-0.017,0.0265,48.1639,2,61.721,16:02:37:991
0.0213,-0.0036,-0.0273,48.5811,2,62.349,16:02:38:992
-0.0101,0.0136,0.0237,48.1506,2,57.709,16:02:39:991
-0.0311,-0.0177,-0.0031,48.4346,2,71.002,16:02:40:992
-0.0016,0.0254,-0.0098,48.1367,2,66.259,16:02:41:991
-0.0142,-0.0043,0.0592,47.5903,2,60.578,16:02:42:991
-0.0214,0.0149,-0.0932,47.4286,2,62.81,16:02:43:991
-0.0094,0.0394,-0.0116,46.855,2,60.547,16:02:44:991
0.0073,0.0016,-0.0391,46.8557,2,57.476,16:02:45:991
-0.0095,0.0275,-0.0207,47,2,60.569,16:02:46:991
0.0188,-0.0046,-0.0178,47.5726,2,60.721,16:02:47:992
0.0357,0.0355,0.011,46.8553,2,56.071,16:02:48:992
0.019,0.0384,-0.0363,47.5751,2,58.635,16:02:49:992
-0.0266,0.0162,0.0676,47.4277,2,60.845,16:02:50:993
7.00E-04,-0.0017,-0.032,48.145,2,59.545,16:02:51:991
0.0487,-0.0012,-0.0153,47.8561,2,61.754,16:02:52:993
-0.0065,0.0177,-0.0013,47.428,2,61.192,16:02:53:992
0.0097,0.0099,-0.0024,47.5715,2,63.675,16:02:54:992
0.0202,-0.0191,0.0373,48.1455,2,60.763,16:02:55:991
0.0306,0.0017,-0.0121,47.5726,2,62.394,16:02:56:991
-0.0087,0.0151,0.0077,48,2,62.721,16:02:57:992
0.0234,0.0253,0.0163,47.4281,2,57.295,16:02:58:992
0.007,0.0154,0.0538,48.1432,2,65.471,16:02:59:992
-0.0262,0.033,0.0334,48.43,2,67.269,16:03:00:993
0.04,0.0066,-0.0501,48,2,53.016,16:03:01:992
0.0215,-0.0265,-0.0311,47.8355,2,63.569,16:03:02:992
0.0015,-0.0059,0.0489,48,2,56.698,16:03:03:992
0.0067,-0.0134,0.0659,48.16,2,62.025,16:03:04:992
-0.0241,5.00E-04,-0.0382,48.423,2,58.407,16:03:05:991
0.0336,-0.0391,-0.0185,48.1475,2,59.664,16:03:06:991
-8.00E-04,-0.0035,-0.0567,48.1373,2,59.885,16:03:07:991
-0.0107,0.0063,0.005,48.5682,2,65.235,16:03:08:992
0.0029,0.0011,0.008,48.5681,2,62.409,16:03:09:992
-0.0388,0.0281,-0.0078,47.863,2,64.943,16:03:10:992
0.0113,-0.041,0.0042,48,2,66.574,16:03:11:991
0.0061,-0.0132,-0.0025,48,2,65.669,16:03:12:992
0.0023,-0.0174,-0.0218,47.854,2,61.789,16:03:13:992
0.0173,0.0226,-0.0332,48.4312,2,62.904,16:03:14:992
-0.0023,0.0041,0.0298,48,2,63.16,16:03:15:991
-0.0177,0.0113,0.0547,48.1412,2,62.188,16:03:16:991
0.0104,0.0095,0.056,48.432,2,57.738,16:03:17:991
0.0223,-0.0031,0.0107,48.5687,2,56.2,16:03:18:992
0.0075,0.0112,-0.0034,47.863,2,62.463,16:03:19:991
-2.00E-04,-7.00E-04,-0.0128,47.5664,2,58.716,16:03:20:992
0.0121,0.0339,0.0469,48.4282,2,47.799,16:03:21:992
0.0345,-0.0037,0.0172,47.8561,2,60.647,16:03:22:992
-0.0061,3.00E-04,0.0049,48.5724,2,68.145,16:03:23:992
0.0237,-0.0019,-0.029,47.8536,2,61.631,16:03:24:991
0.0084,-0.0164,-0.0107,47.8637,2,57.103,16:03:25:992
-0.0094,0.0331,0.0318,47.428,2,44.952,16:03:26:992
-0.0034,0.0032,-0.0297,47.4233,2,57.639,16:03:27:992
0.027,0.0133,0.0445,48.1373,2,15.411,16:03:28:991
0.006,0.0046,-0.065,47.5802,2,42.935,16:03:29:991
0.0217,0.0174,0.0702,48.5666,2,45.917,16:03:30:992
-0.004,-0.0069,0.0513,48.1333,2,59.102,16:03:31:992
-0.0058,0.0027,0.035,48.4318,2,46.448,16:03:32:992
0.04,-0.0207,0.0364,47.4313,2,27.895,16:03:33:991
0.0114,0.0169,-0.0392,48.1487,2,47.711,16:03:34:992
-0.0045,-0.0053,0.0456,47.5688,2,15.445,16:03:35:992
0.0228,0.0206,-0.0191,47.4319,2,15.5,16:03:36:992
0.0137,-0.0059,0.0748,48.1372,2,15.515,16:03:37:992
0.0216,0.0158,6.00E-04,48.1381,2,15.425,16:03:38:992
0.0062,-0.0192,0.0171,48,2,15.447,16:03:39:991
-0.0133,-0.0182,-0.0215,47.5686,2,15.426,16:03:40:992
0.0254,0.0061,0.0279,47.5681,2,15.488,16:03:41:991
0.0351,0.0179,0.0552,48,2,15.526,16:03:42:991
0.0039,-0.0071,-0.0413,47.5723,2,15.601,16:03:43:992
-6.00E-04,0.0284,-0.0197,47.5683,2,37.973,16:03:44:992
-3.00E-04,-0.0135,0.0306,47.5769,2,15.579,16:03:45:992
0.0029,-0.0226,0.0234,48.1369,2,48.628,16:03:46:992
-0.0117,-0.0262,0.0512,47.8385,2,15.672,16:03:47:992
0.08,0.1139,-1.1417,48.4229,2,23.671,16:03:48:993
0.0238,-0.0894,0.0546,36.5658,2,40.045,16:03:49:992
-0.0125,0.0129,0.0323,35.5661,2,33.897,16:03:50:991
0.0458,0.0086,-0.0423,35.5662,2,63.925,16:03:51:991
0.0088,-0.025,0.0344,35.4347,2,15.644,16:03:52:991
0.0184,0.0089,-0.0088,32.5662,2,15.54,16:03:53:992
-0.0055,0.0254,0.0211,31.5714,2,62.112,16:03:54:991
-0.002,-0.0494,-0.034,32,2,15.443,16:03:55:991
-0.0058,0.0099,0.0304,31.5668,2,18.015,16:03:56:991
-0.0463,0.0091,-0.1728,31.5665,2,62.81,16:03:57:991
0.0121,0.0098,0.0236,32,2,50.743,16:03:58:993
-1.3987,-0.4432,-0.314,33.8654,2,22.267,16:03:59:991
0.0606,0.0198,0.093,33.567,2,50.589,16:04:00:991
0.0047,0.0295,0.0363,34,2,16.379,16:04:01:992
0.0343,-0.0183,-0.0203,33.3749,2,40.978,16:04:02:992
0.0052,-0.0062,0.0037,18.8311,2,15.506,16:04:03:991
-7.00E-04,-0.0072,0.0328,5,0,15.602,16:04:04:992
0.0185,0.0238,-0.0095,5.4335,0,30.43,16:04:05:992
0.0302,0.0093,0.0438,6,0,15.673,16:04:06:992
0.0299,0.0207,-0.02,6.4308,0,15.687,16:04:07:991
-0.0166,-0.0388,0.0222,6.4308,0,15.583,16:04:08:992
-0.0281,0.0118,0.0108,6.4308,0,15.774,16:04:09:992
-0.0117,0.0058,7.00E-04,7,0,15.675,16:04:10:992
0.0133,0.0296,-0.0389,34.5724,2,28.705,16:04:11:993
-0.014,0.0297,0.0161,34.4202,2,24.002,16:04:12:993
-0.0198,0.0011,0.0221,35.1328,2,31.781,16:04:13:991
-0.0112,-0.0222,0.0328,34,2,50.051,16:04:14:991
0.0035,0.0035,0.0184,34.4333,2,15.535,16:04:15:991
-0.0181,-0.002,-0.0395,34.5675,2,56.23,16:04:16:991
-0.0115,-0.0285,0.0662,34,2,46.528,16:04:17:991
0.011,-0.0084,-0.0458,34.4335,2,38.973,16:04:18:992
0.3786,0.028,0.0306,34.5662,2,28.183,16:04:19:991
-0.0177,0.0141,0.0166,34.4312,2,15.606,16:04:20:991
-0.0496,-0.0014,-0.0943,34,2,16.178,16:04:21:991
0.0091,-0.0184,-0.0184,34.566,2,15.488,16:04:22:991
0.0108,0.0278,-0.0363,34,2,20.438,16:04:23:991
-0.0093,-0.0301,-0.0597,34,2,39.059,16:04:24:992
-0.9341,0.5428,-0.2811,33.566,2,47.328,16:04:25:992
2.9117,0.2391,-0.4569,26,2,75.58,16:04:26:991
-0.011,-0.0233,-0.0076,26.4312,2,15.54,16:04:27:991
0.0296,0.0109,0.0071,26.5663,2,16.284,16:04:28:991
-0.019,0.0645,-0.0111,26.5672,2,15.532,16:04:29:991
-0.0493,0.0419,-0.0192,26.5732,2,41.943,16:04:30:991
-0.001,0.0106,0.0058,26.5656,2,15.479,16:04:31:992
-0.0011,0.0349,0.0519,26.4324,2,15.423,16:04:32:992
0.0061,0.0181,0.0149,26.569,2,50.322,16:04:33:992
-0.0262,-0.0252,0.008,26.4312,2,15.443,16:04:34:991
0.0067,-0.0189,0.0298,26.4331,2,15.373,16:04:35:991
-0.0109,0.0384,-0.0126,26,2,15.525,16:04:36:992
0.003,-0.0469,0.014,26,2,15.524,16:04:37:992
-0.0027,0.0365,0.05,26,2,15.532,16:04:38:992
-0.0052,0.0138,0.0486,26.4313,2,15.571,16:04:39:992
-0.0055,-0.0068,-0.0286,26.4328,2,35.084,16:04:40:991
0.0158,0.0266,-0.0111,26,2,15.596,16:04:41:992
-0.0131,0.0075,-0.0116,26.5723,2,15.54,16:04:42:992
0.0047,0.0211,-0.0042,26.4316,2,35.695,16:04:43:992
-0.0047,-0.0452,0.0307,26,2,15.665,16:04:44:992
-0.006,0.025,0.012,26.4277,2,52.09,16:04:45:992
0.0034,0.0114,-0.0434,26,2,15.61,16:04:46:991
0.0354,0.0018,0.0439,26,2,15.553,16:04:47:992
-0.0273,-5.00E-04,0.0078,26,2,50.286,16:04:48:991
-1.00E-04,0.0367,0.0473,26,2,46.632,16:04:49:992
-0.0087,0.0205,-0.0124,26,2,15.663,16:04:50:992
0.0189,0.0031,0.0059,26,2,15.48,16:04:51:991
0.0231,0.0134,0.0118,26,2,15.485,16:04:52:992
-0.0111,0.0124,-0.0137,25.5668,2,15.654,16:04:53:991
-0.0289,-0.0264,0.0845,26,2,15.483,16:04:54:991
0.0312,-0.0122,-0.0157,26,2,43.951,16:04:55:992
0.0293,-0.0291,0.0285,25.5799,2,15.457,16:04:56:991
0.0124,0.0059,0.0456,26,2,15.428,16:04:57:992
-0.008,0.0028,0.0101,26,2,15.444,16:04:58:993
-0.0022,0.0251,0.0747,26,2,15.603,16:04:59:991
-0.0265,-0.0124,0.0113,26,2,15.476,16:05:00:993
0.0277,0.0048,0.0324,25.5683,2,15.503,16:05:01:991
0.018,0.0304,-0.0731,25.5679,2,29.303,16:05:02:992
-0.0206,-0.0069,-0.0051,26,2,40.215,16:05:03:992
-0.0359,0.0577,-0.0026,25.4321,2,26.926,16:05:04:991
-0.0167,0.0157,0.0321,25.5685,2,42.561,16:05:05:991
0.0041,0.0398,0.0454,26,2,15.635,16:05:06:992
0.0165,0.0175,-0.0035,26,2,27.755,16:05:07:992
0.0357,0.0205,-0.0361,26,2,31.437,16:05:08:992
0.0047,0.0162,-0.0232,26,2,15.766,16:05:09:992
-0.002,0.0279,-0.011,26.5741,2,44.794,16:05:10:992
-0.0363,-0.05,-0.0245,26.5741,2,69.288,16:05:11:992
0.0222,0.0123,-0.0188,26,2,29.833,16:05:12:992
0.0247,0.0095,-0.0174,26.4243,2,43.641,16:05:13:992
-0.0316,-0.0057,-0.0092,26.4335,2,56.862,16:05:14:992
0.032,0.0042,-0.0038,26.4175,2,33.333,16:05:15:993
-0.0076,0.0543,0.0263,26,2,15.339,16:05:16:991
-0.0053,0.014,0.0138,26,2,15.762,16:05:17:993
-0.0039,0.008,-0.0165,26,2,16.418,16:05:18:991
0.0053,0.0245,0.0537,26,2,15.628,16:05:19:992
0.0019,-0.0043,0.0493,26,2,15.357,16:05:20:991
-0.012,0.0113,-0.0094,25.5696,2,15.376,16:05:21:992
-0.0063,-0.025,0.0062,25.4271,2,15.911,16:05:22:993
-0.0225,0.0136,-0.018,26,2,15.33,16:05:23:992
0.0048,0.0177,0.0018,26,2,15.424,16:05:24:991
0.0341,0.0062,-0.0163,25.4338,2,15.362,16:05:25:992
-0.0093,0.0068,-0.0064,25.5691,2,15.519,16:05:26:992
0.0089,0.0383,-0.0321,26,2,15.429,16:05:27:993
-0.0299,0.019,0.0177,26,2,15.575,16:05:28:996
-0.0038,-0.0217,0.0345,25.5713,2,43.984,16:05:29:992
-0.0329,0.0075,-0.0273,26,2,15.656,16:05:30:993
-0.0096,-0.0352,-0.0053,26,2,15.514,16:05:31:992
-0.0056,-0.0225,0.0254,26,2,15.455,16:05:32:992
0.0225,-0.0091,-0.0195,26,2,15.466,16:05:33:991
0.0366,-3.00E-04,0.0795,26,2,15.499,16:05:34:992
0.0353,0.0441,0.0643,26,2,15.43,16:05:35:992
-0.0084,0.0219,-0.0623,25.5671,2,15.328,16:05:36:993
-0.023,0.0226,0.0362,25.4321,2,15.308,16:05:37:992
-0.0097,0.0057,-0.0562,26,2,15.304,16:05:39:004
-0.0284,-0.0232,-0.019,26,2,15.29,16:05:39:993
-0.0222,0.0084,-0.0619,26,2,15.378,16:05:40:992
-0.0371,0.0173,0.0529,25.5685,2,15.363,16:05:41:991
0.0095,0.001,-0.0467,26,2,15.308,16:05:42:992
0.0208,-0.0322,-0.048,26,2,15.426,16:05:43:993
0.0214,0.0091,0.0518,26,2,15.277,16:05:44:991
0.0158,0.027,0.0102,25.5692,2,15.418,16:05:45:992
-0.0154,-0.021,0.0012,26,2,15.419,16:05:46:992
0.0156,6.00E-04,-7.00E-04,26,2,15.409,16:05:47:991
-0.0068,0.0191,-0.0052,26,2,15.384,16:05:48:992
0.017,0.0331,-0.0458,26,2,15.436,16:05:49:992
0.0015,0.0067,0.0216,26,2,15.511,16:05:50:992
0.0252,-0.0051,-0.048,26,2,15.513,16:05:51:992
0.0067,0.0348,0.007,26,2,15.495,16:05:52:991
-0.0179,-0.0116,-0.009,26,2,15.52,16:05:53:993
-0.0135,0.0212,0.0745,26,2,15.462,16:05:54:992
-0.0107,0.0231,0.0138,26,2,15.51,16:05:55:991
0.0046,-0.0248,0.0027,26,2,15.517,16:05:56:992
0.0078,0.0084,0.0273,26,2,15.497,16:05:57:991
-0.0042,0.0277,-0.0353,25.5725,2,15.423,16:05:58:991
0.0172,5.00E-04,-0.0092,26,2,15.584,16:05:59:992
-0.0128,-0.032,0.0323,25.5718,2,15.552,16:06:00:991
-0.0165,0.0522,0.0328,26,2,15.618,16:06:01:995
0.0221,0.0063,-0.0669,25.5666,2,15.547,16:06:02:993
0.0068,-0.0034,-0.0754,26,2,15.406,16:06:03:992
0.0177,0.0062,-0.0224,26,2,15.505,16:06:04:992
0.0122,0.0177,0.0082,26,2,15.619,16:06:05:992
0.0208,-0.0068,0.0169,25.419,2,15.622,16:06:06:991
-0.0139,-0.0014,-0.0105,25.5741,2,15.606,16:06:07:991
0.009,0.0346,-0.0214,26,2,15.506,16:06:08:991
-0.013,-0.0112,0.0377,26,2,15.319,16:06:09:993
-0.0146,-0.0084,-0.0295,26,2,15.467,16:06:10:992
0.0034,-0.0062,-0.0346,25.5745,2,15.326,16:06:11:993
-0.0078,0.0138,0.0554,25.4215,2,15.367,16:06:12:991
0.0269,-0.0175,0.0345,25.5667,2,15.384,16:06:13:992
-0.0065,0.0097,0.0609,26,2,15.415,16:06:14:992
-0.0207,0.0132,-0.0262,26,2,15.445,16:06:15:992
-8.00E-04,0.0146,0.0226,26,2,15.448,16:06:16:994
0.0276,0.0181,0.0318,26,2,15.472,16:06:17:992
0.0428,0.0426,-0.048,25.5691,2,15.45,16:06:18:991
0.0321,0.0049,-0.005,25.4312,2,22.439,16:06:19:992
-0.0042,0.0343,0.0181,26,2,15.537,16:06:20:993
0.0086,0.0042,0.0123,26,2,15.574,16:06:21:991
0.0066,-0.0136,-0.0095,25.5692,2,15.633,16:06:22:992
0,0.0442,-0.0242,25.5686,2,15.586,16:06:23:991
-0.0092,-0.0271,0.0156,26,2,15.591,16:06:24:992
-0.0074,-0.0299,0.016,25.4311,2,15.488,16:06:25:991
0.0053,0.001,0.0135,26,2,15.443,16:06:26:991
-0.0234,0.0107,0.0461,25.5746,2,15.491,16:06:27:992
0.0243,0.0466,-0.0351,26,2,15.408,16:06:28:993
-0.0037,-0.0111,0.0013,25.5802,2,15.417,16:06:29:991
-0.0174,-0.0047,-0.0035,26,2,15.564,16:06:30:993
-0.0115,0.0235,-0.0013,25.5672,2,15.492,16:06:31:992
-0.009,0.019,0.0132,26,2,15.535,16:06:32:991
0.0021,0.0414,0.0499,26,2,15.523,16:06:33:992
-0.0378,0.0025,0.0419,25.5813,2,15.664,16:06:34:992
0.0282,-0.0075,-0.0048,25.4275,2,15.46,16:06:35:992
-0.0024,-0.0123,0.0502,25.5664,2,15.603,16:06:36:993
-0.0325,0.0167,0.0608,26,2,15.655,16:06:37:991
0.0068,-0.0113,0.0073,25.5922,2,15.584,16:06:38:991
-0.0034,0.0359,0.0364,26,2,15.56,16:06:39:991
-0.0104,0.0505,0.0421,26,2,15.505,16:06:40:992
-0.0063,-0.0323,-0.0384,26,2,15.332,16:06:41:991
0.0171,0.0062,-0.0344,25.5803,2,15.366,16:06:42:992
0.0215,-0.0107,-0.0495,25.4246,2,15.436,16:06:43:991
0.0517,0.0125,0.0258,25.567,2,15.374,16:06:44:991
0.0168,-4.00E-04,-0.044,26,2,15.59,16:06:45:991
-0.0099,-0.026,0.0146,26,2,15.451,16:06:46:992
-0.0441,0.0269,-0.0529,26,2,15.454,16:06:47:991
0.0042,-0.0132,-0.0577,26,2,15.54,16:06:48:991
-0.0197,-0.0052,0.0244,25.4185,2,15.559,16:06:49:991
-0.0483,-0.0026,-0.0119,25.5756,2,15.566,16:06:50:992
-0.0081,-0.0118,-0.0282,26,2,15.547,16:06:51:992
-0.0134,0.0184,-0.0415,26,2,15.559,16:06:52:992
-0.0102,0.0463,-0.0137,25.5751,2,15.526,16:06:53:992
0.0243,-0.0097,0.0645,26,2,63.819,16:06:54:992
-0.0381,0.0353,0.0452,26,2,15.283,16:06:55:992
-0.0228,0.0028,-0.0094,26,2,15.341,16:06:56:992
0.0329,-0.0204,-0.0341,26,2,15.322,16:06:57:992
-0.0443,0.023,-0.0212,26,2,15.293,16:06:58:992
-0.0318,0.0029,-0.0321,25.5686,2,15.466,16:06:59:992
0.013,0.0179,0.0391,25.5688,2,15.506,16:07:00:992
-0.001,0.0115,-0.0247,26,2,15.389,16:07:01:991
0.0021,-0.001,0.0558,26,2,15.559,16:07:02:991
-0.0208,0.0071,-0.0194,26,2,15.4,16:07:03:991
0.008,0.0012,-0.0036,25.4317,2,15.543,16:07:04:992
0.009,-0.032,0.0325,26,2,15.596,16:07:05:991
0.0066,-0.0081,0.0564,26,2,15.524,16:07:06:992
-0.0222,0.0093,-0.0433,25.5662,2,15.523,16:07:07:991
-0.0257,0.035,0.0396,26,2,15.406,16:07:08:991
-0.0154,-0.02,-0.0153,25.5665,2,15.387,16:07:09:992
0.0246,0.0263,0.0269,25.5789,2,61.217,16:07:10:992
0.0019,-0.0243,0.0739,25.5682,2,65.132,16:07:11:991
0.0265,-0.0209,-0.0171,25.5672,2,15.393,16:07:12:991
0.0259,-0.0188,-0.0474,25.4331,2,15.389,16:07:13:992
-0.0371,0.0266,-0.0337,25.5682,2,15.395,16:07:14:991
0.0198,-0.0081,-0.0253,26,2,15.427,16:07:15:992
0.0245,-0.0192,-0.0164,26,2,15.479,16:07:16:992
-0.0059,0.0145,-0.0231,26,2,15.605,16:07:17:992
0.0526,0.0197,-0.0047,25.4207,2,15.514,16:07:18:992
-0.0023,-0.0019,-0.0055,25.5665,2,15.553,16:07:19:992
0.0051,-0.0137,-0.0181,26,2,15.546,16:07:20:992
-0.0097,0.0133,-0.068,25.5666,2,15.361,16:07:21:992
-0.0024,0.0159,0.0554,26,2,15.738,16:07:22:992
-0.0185,0.0045,0.0185,26,2,15.316,16:07:23:991
-0.0165,-0.0176,0.0176,25.4208,2,15.269,16:07:24:991
-0.0028,0.0022,0.0177,26,2,15.324,16:07:25:992
0.0022,0.0075,-0.0047,26,2,15.391,16:07:26:992
0.0094,0.0033,-0.0136,26,2,15.419,16:07:27:992
0.0233,0.0083,0.1156,25.4273,2,16.237,16:07:28:993
0.0155,0.0235,0.0524,25.573,2,15.392,16:07:29:992
0.001,-0.0292,0.0046,26,2,15.348,16:07:30:992
0.0299,0.0059,-0.0131,26,2,15.476,16:07:31:992
0.0023,0.0166,-0.0134,26,2,15.444,16:07:32:992
0.0332,-0.007,-0.0135,25.5769,2,15.52,16:07:33:992
0.0128,0.0332,-0.0034,25.5713,2,15.502,16:07:34:993
0.0208,0.0082,0.0373,25.5738,2,15.478,16:07:35:994
-0.0012,0.052,-0.0089,26,2,15.465,16:07:36:992
0.003,0.0418,0.0556,26,2,15.419,16:07:37:991
0.0226,0.0116,-0.0267,26,2,15.319,16:07:38:991
-0.0142,0.0089,-0.0817,25.4268,2,15.245,16:07:39:992
0.0226,-0.0228,-0.0839,25.5735,2,15.547,16:07:40:992
-0.0091,-3.00E-04,-0.0091,25.5662,2,15.37,16:07:41:992
-0.0413,0.0107,-0.038,25.5685,2,15.598,16:07:42:992
0.0249,-0.0239,0.0043,25.5809,2,15.313,16:07:43:992
-0.0139,-0.0035,0.043,26,2,15.419,16:07:44:992
-0.0088,-0.0146,0.0333,25.5735,2,15.342,16:07:45:992
0.0187,0.0124,-0.0697,26,2,15.363,16:07:46:991
0.0138,-0.0103,0.0659,25.5809,2,15.389,16:07:47:992
-0.0045,0.008,3.00E-04,25.5808,2,15.492,16:07:48:996
-0.0076,-0.0028,-0.0108,25.5842,2,15.574,16:07:49:991
-0.0334,-0.0068,-0.0221,26,2,19.923,16:07:50:993
0.0042,-0.0148,-0.0302,26,2,15.378,16:07:51:992
-0.0159,-0.0145,-0.0225,25.5757,2,15.295,16:07:52:993
0.0273,0.0174,0.0103,25.5802,2,15.372,16:07:53:992
-0.0054,0.0201,0.0674,25.566,2,15.22,16:07:54:992
-0.0111,0.0052,0.0358,25.4201,2,15.351,16:07:55:992
-0.0301,0.0247,-0.0057,26,2,15.423,16:07:56:991
-0.0292,-0.0197,-0.0124,25.5828,2,44.492,16:07:57:992
-0.0186,-0.0115,0.0381,25.5727,2,15.447,16:07:58:991
0.0077,-0.0097,0.0169,25.4287,2,50.527,16:07:59:992
-0.0104,0.0022,0.0254,25.5683,2,15.538,16:08:00:992
0.0221,-0.0128,-0.022,25.5666,2,15.531,16:08:01:991
0.0168,0,0.0425,26,2,15.699,16:08:02:993
0.0054,0.0373,-0.0076,26,2,15.578,16:08:03:992
0.014,-0.021,0.0358,26,2,15.564,16:08:04:994
-0.0076,0.023,-0.0303,26,2,15.603,16:08:05:992
-0.0191,-0.0373,0.0358,26,2,15.65,16:08:06:991
0.0355,-0.0072,0.0596,26,2,15.675,16:08:07:993
-0.0182,0.0449,-0.0072,26,2,15.646,16:08:08:992
0.0054,-0.0041,0.0756,25.4336,2,15.586,16:08:09:991
0.013,-0.0028,0.0067,25.5662,2,15.586,16:08:10:992
0.0108,0.0087,0.0147,25.5939,2,15.549,16:08:11:991
0.027,-0.0264,0.0245,25.5826,2,15.566,16:08:12:992
0.0048,-0.0189,-3.00E-04,25.4336,2,15.528,16:08:13:992
0.0285,-0.0079,-0.0669,26,2,15.381,16:08:14:993
0.0028,-0.0217,0.026,25.5729,2,15.437,16:08:15:992
-0.0235,0.0036,0.0011,25.5806,2,15.477,16:08:16:992
-0.0213,0.0046,0.0239,26,2,15.654,16:08:17:992
-0.0358,-0.0052,0.0315,26,2,15.54,16:08:18:991
-0.0411,-0.0042,0.0503,26,2,15.677,16:08:19:992
0.0171,-0.0092,0.0443,25.5739,2,15.539,16:08:20:991
-0.0189,0.0141,0.0067,25.567,2,15.703,16:08:21:993
0.0136,0.0051,0.0178,25.4275,2,15.437,16:08:22:994
-0.0227,0.0261,-0.0475,26,2,15.245,16:08:23:992
-0.0145,0.0153,-0.0349,26,2,15.711,16:08:24:992
-0.0027,0.0052,-0.0049,25.5725,2,15.734,16:08:25:992
0.0078,0.0206,0.0025,25.5684,2,15.569,16:08:26:992
0.0179,-0.0068,-0.0183,25.5683,2,15.542,16:08:27:992
0.0311,0.0027,0.0233,25.4198,2,15.509,16:08:28:992
0.0322,-0.0047,-0.0096,26,2,15.64,16:08:29:991
0.0048,0.0209,-0.0292,25.5808,2,15.536,16:08:30:992
0.003,-0.0178,0.0169,25.5663,2,15.432,16:08:31:994
0.0053,-0.0025,-0.0635,25.4341,2,15.587,16:08:32:992
0.0158,-0.0116,-0.0045,25.5861,2,15.425,16:08:33:991
-0.0072,0.0149,-0.0183,25.5661,2,15.584,16:08:34:992
0.0068,0.007,-0.0503,25.5728,2,15.548,16:08:35:992
-0.0084,-0.0052,0.0063,25.5939,2,15.577,16:08:36:992
-0.0052,0.0153,0.0022,26,2,15.447,16:08:37:992
0.0052,0.0094,0.0187,25.4317,2,15.553,16:08:38:992
0.01,-0.0255,0.0317,25.5691,2,15.481,16:08:39:992
-0.0244,0.0279,0.0776,25.5688,2,15.592,16:08:40:992
-0.0173,-0.0243,-0.0368,25.5743,2,15.697,16:08:41:991
0.0099,-0.0356,0.0192,25.4337,2,15.701,16:08:42:991
-0.0154,0.0032,-0.0649,25.5797,2,15.706,16:08:43:992
0.0169,0.035,-0.0174,25.5958,2,15.564,16:08:44:992
-0.0162,0.0332,0.0585,25.5804,2,15.546,16:08:45:992
-0.0067,0.0042,0.0701,25.5806,2,44.537,16:08:46:992
0.0462,-0.0111,-0.0401,25.5664,2,15.573,16:08:47:992
0.0072,0.0014,-0.006,25.5742,2,15.414,16:08:48:991
0.0276,-0.0167,-0.0072,26,2,15.396,16:08:49:992
0.0121,0.0462,0.0069,26,2,15.539,16:08:50:991
-0.0114,0.0048,-0.1242,25.5752,2,20.827,16:08:51:991
0.0055,0.0149,0.0181,25.4205,2,35.284,16:08:52:992
0.0105,0.0055,-0.0132,25.5963,2,15.511,16:08:53:993
0.0068,-0.0361,-0.0719,25.5799,2,15.698,16:08:54:991
0.0226,-0.0061,-0.0777,25.4278,2,15.59,16:08:55:992
0.0332,0.0403,0.034,25.5833,2,15.571,16:08:56:991
0.0101,0.0226,0.0389,25.57,2,15.627,16:08:57:991
-0.0251,0.0244,0.0177,26,2,15.725,16:08:58:992
0.0082,0.0075,-0.0339,25.5832,2,16.547,16:08:59:992
-0.017,-0.0053,-0.0254,25,2,15.503,16:09:00:992
-0.009,0.0428,0.0403,26,2,15.541,16:09:01:991
-0.006,0.0357,-0.003,25.5739,2,15.445,16:09:02:991
-0.0127,0.0309,-0.0836,25.5801,2,57.363,16:09:03:991
-0.0072,0.0345,-0.042,25.4266,2,60.652,16:09:04:992
0.0105,-0.0176,-0.0403,25.5753,2,56.538,16:09:05:992
-0.0222,0.0258,0.0575,25.5686,2,55.505,16:09:06:991
-0.0094,-0.0064,-0.017,25.5716,2,63.896,16:09:07:991
-1.00E-04,0.0132,6.00E-04,25.4313,2,60.445,16:09:08:992
-0.0338,0.008,-0.0609,25.5686,2,59.208,16:09:09:992
0.0165,0.0124,0.0133,25.5688,2,50.819,16:09:10:992
0.015,-0.0372,0.0354,25.5692,2,65.007,16:09:11:992
-0.0054,0.0076,0.0346,25.5695,2,15.617,16:09:12:991
0.0204,-0.0089,-0.0249,25.4314,2,15.587,16:09:13:992
-0.0111,0.0354,-0.0143,25.4312,2,15.695,16:09:14:992
-0.0086,0.0398,-0.0286,25.4312,2,15.556,16:09:15:991
0.0269,-0.0112,0.0135,26,2,15.46,16:09:16:992
-0.0081,0.0186,-0.0256,26,2,15.3,16:09:17:992
0.0115,0.04,0.0109,25.4309,2,15.496,16:09:18:992
0.0082,-0.0119,0.0551,25.5688,2,15.516,16:09:19:992
0.0083,0.0353,0.0373,25.5689,2,15.432,16:09:20:992
-0.0044,0.0453,-0.0669,25.4317,2,65.375,16:09:21:992
-0.0133,-0.0128,0.0396,25.4314,2,36.173,16:09:22:991
0.0213,0.0642,-0.0189,25.4241,2,60.514,16:09:23:992
-0.0367,-0.0304,-0.0138,25.4271,2,15.624,16:09:24:993
-0.0098,0.0064,-0.0019,25.5803,2,30.8,16:09:25:992
0.0083,0.005,-0.003,25.5666,2,15.574,16:09:26:992
-0.0065,-0.0384,0.0247,26,2,15.626,16:09:27:992
0.0186,0.0219,-0.0515,25.4144,2,37.43,16:09:28:991
-0.0305,0.0202,-0.0529,25.5739,2,66.398,16:09:29:992
-0.0338,-0.0222,0.0274,25.5724,2,43.586,16:09:30:993
-0.0021,0.0239,0.0552,25.4269,2,15.508,16:09:31:992
-0.0076,-0.0033,-0.1024,25.4274,2,61.244,16:09:32:992
0.0275,0.0076,-0.0037,25.571,2,48.873,16:09:33:992
1.1299,1.2386,-0.3844,25.4344,2,58.499,16:09:34:991
0.0021,0.015,-0.0196,22.5662,2,51.722,16:09:35:991
-0.0402,-0.0059,0.0258,25.5685,2,61.443,16:09:36:991
-0.0236,0.0322,-0.0468,25.4345,2,33.945,16:09:37:991
-0.0398,-0.022,-0.0131,25.4336,2,44.031,16:09:38:991
0.0126,-0.0834,-0.017,25,2,15.493,16:09:39:991
-0.011,-0.0284,0.0254,25.5665,2,15.462,16:09:40:991
-0.0123,-0.0181,-0.015,25,2,15.457,16:09:41:991
-0.0112,0.0467,-0.0299,25,2,15.5,16:09:42:991
-0.0448,-0.0369,-0.0345,24.4338,2,15.807,16:09:43:991
-0.0195,-0.0253,-0.0744,21.5656,2,60.446,16:09:44:992
-0.0022,-0.0144,0.0227,20.5659,2,56.544,16:09:45:991
-0.0031,0.0245,-0.0101,21.8685,2,45.188,16:09:46:991
0.003,-0.0295,-0.0268,27.4338,2,15.623,16:09:47:991
-0.0189,0.0015,0.048,28,2,15.658,16:09:48:993
0.0014,0.0211,0.0401,27.4307,2,15.574,16:09:49:992
-0.0035,0.0275,-0.0521,27,2,15.614,16:09:50:992
-0.0111,-0.0252,-0.0197,26.5658,2,15.545,16:09:51:992
0.0219,-0.0088,0.0166,25.4282,2,20.512,16:09:52:992
-0.0167,0.0059,0.036,26.1355,2,48.284,16:09:53:991
0.0072,0.0266,-0.0578,25.4337,2,34.98,16:09:54:992
-0.006,0.0252,0.0533,28,2,47.685,16:09:55:992
0.0083,0.0251,-0.0175,28,2,43.872,16:09:56:993
5.082,-1.0055,-2.5393,26.5676,2,77.035,16:09:57:991
0.0346,-0.052,-0.1165,27,2,76.775,16:09:58:998
0.0597,0.0894,-0.6513,24.4314,2,63.153,16:09:59:992
-0.0054,-0.0254,-0.0202,25.5674,2,56.702,16:10:00:992
-0.0601,-0.0333,-0.037,24.5684,2,15.425,16:10:01:991
0.0409,0.0064,-0.0741,24.5684,2,52.578,16:10:02:991
0.0344,-0.0349,0.045,23.5661,2,55.682,16:10:03:993
0.0432,-0.0086,-0.025,24.4327,2,55.764,16:10:04:992
-0.0012,-0.0125,-0.0212,24,2,43.768,16:10:05:991
-0.0062,0.0048,0.0085,24,2,53.044,16:10:06:991
-0.0169,0.0186,0.0077,24,2,43.922,16:10:07:991
-0.0019,-0.0182,0.0056,24,2,15.387,16:10:08:991
0.0348,-0.0089,0.015,24,2,29.921,16:10:09:992
-0.0135,0.0177,-0.0013,24.4335,2,25.602,16:10:10:991
0.0184,0.0128,0.0134,24.5665,2,62.557,16:10:11:994
-0.0219,-0.0032,-0.0111,24.5665,2,56.012,16:10:12:992
-0.0276,4.00E-04,0.0251,24.5665,2,17.786,16:10:13:991
-0.0304,-0.0216,-0.0078,24.4338,2,15.783,16:10:14:991
0.0139,-0.0376,0.014,24.4338,2,15.401,16:10:15:991
0.0154,0.0045,-0.0059,24,2,15.647,16:10:16:991
0.0333,0.0147,0.0491,24,2,15.552,16:10:17:623
0.0208,0.0047,0.0147,24,2,15.533,16:10:18:624
0.0171,7.00E-04,0.0401,24,2,15.48,16:10:19:623
-0.0361,-0.0111,0.0286,23.5657,2,15.555,16:10:20:625
-0.0291,-0.0063,0.0224,24,2,15.431,16:10:21:624
0.007,-0.0067,0.0377,24,2,15.567,16:10:22:624
0.0028,0.0288,0.0075,24,2,51.322,16:10:23:627
0.0128,-0.0112,-0.049,24,2,15.393,16:10:24:625
0.009,-0.0062,-0.0783,25,2,15.589,16:10:25:625
0.0064,-0.0342,-0.0067,25,2,24.968,16:10:26:623
0.0293,-0.0077,-0.0208,25,2,15.602,16:10:27:623
-0.0205,0.0076,0.0284,25.4338,2,16.511,16:10:28:624
-0.0124,-0.0304,-0.0061,25,2,28.561,16:10:29:625
0.0088,-0.0163,0.0516,25,2,47.131,16:10:30:624
-0.0365,-0.0273,-0.0882,25,2,58.369,16:10:31:624
-0.0151,-0.0411,-0.0445,25,2,15.57,16:10:32:623
0.0075,-0.0157,-0.0016,25,2,15.356,16:10:33:626
0.0058,0.0024,0.0376,24.5692,2,15.497,16:10:34:624
-0.0049,-0.0202,0.0362,24.5685,2,38.49,16:10:35:624
-0.0173,0.0051,0.0048,24.5662,2,15.469,16:10:36:624
-0.0117,0.0136,-0.0691,24.5756,2,15.394,16:10:37:625
0.0048,0.0106,0.0071,24.432,2,37.983,16:10:38:625
-0.0155,0.0273,0.0159,24.4316,2,15.548,16:10:39:624
-4.00E-04,-0.0168,0.0363,24.4258,2,15.499,16:10:40:625
0.0315,0.0086,-0.0081,24.5746,2,15.474,16:10:41:624
-0.0267,0.0043,-0.0111,25,2,15.607,16:10:42:624
0.0053,-0.0208,-0.0831,24.5819,2,15.655,16:10:43:624
0.0021,-0.0031,0.041,24.5657,2,15.671,16:10:44:625
-0.0294,0.0314,-0.0255,24.4275,2,15.59,16:10:45:624
0.0037,0.0098,0.076,24.5747,2,15.565,16:10:46:623
-0.0111,0.0034,-0.0623,24.5722,2,15.633,16:10:47:625
-0.0228,-1.00E-04,-0.0029,24.5724,2,15.43,16:10:48:624
-0.0063,0.0213,-0.0112,25,2,15.439,16:10:49:623
0.0187,0.0165,-0.0329,25,2,15.25,16:10:50:625
0.0155,0.0112,0.0841,24.4331,2,15.433,16:10:51:624
6.00E-04,-0.0069,-0.0505,24.5688,2,15.536,16:10:52:624
0.0238,0.0175,-0.0328,24.5816,2,15.46,16:10:53:624
-0.0012,0.0172,0.0028,25,2,15.492,16:10:54:625
-0.0105,0.0148,0.0297,25,2,15.567,16:10:55:624
0.0023,0.0273,-0.0151,24.5746,2,15.576,16:10:56:624
-0.0315,-0.0285,-0.0841,24,2,15.495,16:10:57:624
0.0234,-0.0017,-0.0239,24.5676,2,15.67,16:10:58:624
0.0114,-0.0494,-0.0011,25,2,19.966,16:10:59:624
6.00E-04,-0.0251,0.0296,25,2,32.669,16:11:00:624
2.00E-04,0.0148,-0.0659,25,2,15.649,16:11:01:625
-0.0055,0.0196,-0.0132,24.5685,2,36.73,16:11:02:624
0.0205,0.0124,0.0479,24,2,28.316,16:11:03:624
0.0372,0.0038,-0.0495,24.4179,2,15.443,16:11:04:623
0.0096,0.0211,0.1151,24.5789,2,15.342,16:11:05:624
-0.0113,-0.0079,0.0167,24.5686,2,15.457,16:11:06:625
0.0173,0.0087,0.0919,24.5688,2,15.523,16:11:07:624
-0.0149,0.0161,0.0071,25,2,15.484,16:11:08:624
-0.015,0.0164,0.0278,24.4314,2,15.437,16:11:09:624
0.0166,0.0379,-0.0276,24.4325,2,15.388,16:11:10:624
-0.01,-0.0022,0.0638,24.5683,2,41.674,16:11:11:626
0.0059,0.0082,0.0079,24.5679,2,15.615,16:11:12:624
-0.0017,-0.0301,-0.0277,24.4306,2,17.086,16:11:13:623
0.016,-0.0026,-0.0035,24.4315,2,15.679,16:11:14:624
0.002,0.0363,-0.0275,24,2,15.57,16:11:15:624
0.0146,-0.0141,-0.0049,24,2,15.683,16:11:16:624
0.0163,0.0227,0.0336,24,2,44.834,16:11:17:623
-0.0053,0.0053,0.0178,24.5688,2,15.613,16:11:18:623
-0.0227,0.0297,0.0568,24,2,15.696,16:11:19:624
0.0081,0.0187,-0.0087,24.5652,2,15.538,16:11:20:624
0.0167,0.0242,0.0275,24.4157,2,15.513,16:11:21:624
-0.0261,0.0115,0.0124,24,2,15.314,16:11:22:626
0.0087,0.0046,0.0168,24,2,15.259,16:11:23:623
0.0566,0.0111,0.0269,24,2,15.342,16:11:24:624
-0.0223,0.0041,0.0261,24,2,15.341,16:11:25:624
-0.0025,0.0355,-0.0167,24,2,15.555,16:11:26:623
0.0296,-0.0018,-0.0197,24,2,15.519,16:11:27:624
0.0011,-0.0391,-0.0549,24,2,15.557,16:11:28:624
0.0049,0.0266,0.0117,24,2,15.505,16:11:29:624
-0.011,-0.0311,0.0166,24,2,15.596,16:11:30:624
0.0053,0.0267,0.0447,24,2,15.678,16:11:31:624
0.0336,0.03,0.0027,24,2,15.663,16:11:32:630
-0.0353,0.0194,0.0072,23.5795,2,15.558,16:11:33:624
0.028,-0.0082,0.0362,23.5748,2,15.648,16:11:34:624
-0.0083,-0.0113,0.0137,23.5662,2,15.644,16:11:35:625
0.0045,0.0416,0.012,24,2,15.486,16:11:36:624
0.0312,0.003,-0.0092,24,2,15.422,16:11:37:624
0.0026,-0.007,0.0222,23,2,15.367,16:11:38:624
0.0049,-0.0086,0.0124,24,2,15.261,16:11:39:624
-0.0253,-0.0222,0.0123,23.5656,2,15.645,16:11:40:623
0.005,-0.0298,0.0224,23,2,15.501,16:11:41:624
-0.0455,0.0026,0.007,23,2,15.499,16:11:42:623
-0.0407,0.0038,-0.0491,22.4285,2,15.507,16:11:43:623
0.025,-0.0027,0.0217,23,2,15.545,16:11:44:624
-0.0044,-0.0137,-0.0456,23.4344,2,46.842,16:11:45:625
0.0197,-0.0201,0.0114,23.4344,2,15.533,16:11:46:624
0.0084,0.1371,0.1845,23.5654,2,47.403,16:11:47:623
0.012,-0.0547,-0.0047,23.5655,2,22.194,16:11:48:624
0.0368,-0.0242,0.0146,23,2,15.546,16:11:49:624
0.0039,-0.0072,0.0282,23,2,15.516,16:11:50:624
0.0143,0.0023,-0.0935,23,2,15.447,16:11:51:623
0.0029,-0.0526,-0.0721,23.4347,2,17.07,16:11:52:624
-0.0103,-0.0279,0.0587,23.4344,2,15.987,16:11:53:623
-0.0104,-0.0151,0.0395,23,2,15.3,16:11:54:624
0.0277,-0.0082,-0.0172,23.4344,2,15.414,16:11:55:624
0.0198,-0.0205,-0.0065,23,2,15.459,16:11:56:624
1.00E-04,0.0175,0.008,23.5655,2,15.387,16:11:57:623
0.0236,0.0059,-0.0472,23.4347,2,15.613,16:11:58:624
-0.0032,0.0217,-0.0128,23.4344,2,15.567,16:11:59:624
0.0372,0.0076,-0.0086,23,2,15.7,16:12:00:624
0.0149,-0.0041,0.0438,23,2,15.52,16:12:01:623
0.0188,0.0039,-0.0604,23,2,15.651,16:12:02:624
-0.0172,-0.0663,-0.0028,23,2,15.609,16:12:03:624
0.0493,-0.0594,0.0393,23,2,15.559,16:12:04:623
-0.0024,-0.0097,0.0412,23,2,15.467,16:12:05:624
7.00E-04,-0.0227,7.00E-04,23.4343,2,34.434,16:12:06:623
-0.0043,-0.0227,0.0329,23,2,15.418,16:12:07:624
0.0329,-0.0175,0.0342,22.5669,2,15.544,16:12:08:623
0.023,0.0127,0.0525,23,2,15.436,16:12:09:624
0.0209,-0.0454,0.0243,23,2,15.563,16:12:10:624
0.0065,-0.0158,-0.0025,22.5664,2,15.518,16:12:11:624
0.0335,-0.0016,0.0314,23,2,15.614,16:12:12:624
-0.0421,-0.0117,0.0237,23,2,15.678,16:12:13:624
0.024,-0.0055,0.026,22.4337,2,15.671,16:12:14:626
-0.0017,-0.0235,0.0398,22.4257,2,15.676,16:12:15:624
0.0096,-0.0161,-0.0226,23,2,15.593,16:12:16:624
-0.0253,-0.0273,-0.0405,22.5685,2,15.611,16:12:17:625
0.0292,-0.0424,-0.0381,23,2,15.614,16:12:18:623
0.0061,0.0018,-0.0053,23,2,15.633,16:12:19:624
-0.045,0.0177,-0.0254,23,2,15.542,16:12:20:624
0.0025,-0.0212,-0.0224,23,2,15.669,16:12:21:625
-0.0063,-0.0395,0.0237,23,2,15.599,16:12:22:624
0.0041,-0.0276,0.0474,23,2,15.633,16:12:23:624
0.0127,0.0187,-0.027,23,2,15.522,16:12:24:624
0.0129,-0.0355,0.0522,23,2,15.444,16:12:25:624
-0.0099,-0.0332,-0.0567,23.4277,2,15.54,16:12:26:624
-0.012,0.0141,-0.0924,24,2,15.494,16:12:27:625
0.0022,0.0061,0.0058,23.4336,2,15.521,16:12:28:624
-0.0095,-0.0548,-0.033,24,2,15.506,16:12:29:624
-0.0024,-0.0289,0.0072,23.5719,2,15.485,16:12:30:624
-0.0143,0.0173,-0.0078,23,2,15.405,16:12:31:624
0.0181,-0.0558,-0.0325,23.4223,2,15.443,16:12:32:628
-0.0091,-0.0163,-0.0371,23,2,15.461,16:12:33:624
0.0165,-0.0121,0.0123,23,2,21.782,16:12:34:624
0.0015,7.00E-04,-0.0747,23,2,15.426,16:12:35:624
0.017,0.0167,0.0412,23,2,15.497,16:12:36:627
0.0026,0.0056,-0.03,22.58,2,17.104,16:12:37:650
-0.0067,0.0162,0.0084,21.58,2,27.242,16:12:38:624
0.0398,-0.0101,0.0592,21.5768,2,38.952,16:12:39:624
-0.034,0.0148,-0.0571,21.4053,2,15.592,16:12:40:624
0.0085,-0.0129,-0.0189,21.4338,2,15.533,16:12:41:624
0.0019,-9.00E-04,0.0638,21.4329,2,15.583,16:12:42:625
-0.0077,0.0055,0.006,21,2,15.715,16:12:43:624
0.0205,0.0198,-0.0486,21.4183,2,15.572,16:12:44:623
-2.00E-04,5.00E-04,0.0285,23,2,48.319,16:12:45:624
-0.0061,-0.0051,0.008,23.5713,2,15.475,16:12:46:624
0.0069,0.0063,-0.0446,22.5825,2,15.564,16:12:47:625
-0.0254,0.0115,-0.0676,23,2,16.019,16:12:48:625
0.0238,0.0045,0.0181,23,2,16.374,16:12:49:625
0.0187,0.0101,0.0105,22.5662,2,15.697,16:12:50:625
-0.023,-0.0113,-0.0075,22.5674,2,15.614,16:12:51:625
0.0101,0.0186,-0.0529,22.4341,2,15.532,16:12:52:624
-0.016,0.0139,-0.0181,23,2,58.279,16:12:53:624
0.002,0.0014,0.0204,23,2,55.252,16:12:54:625
0.0019,-0.007,-0.0737,15.5686,2,15.504,16:12:55:624
0.0067,-0.0188,-0.0184,24.4239,2,41.623,16:12:56:624
0.0097,-0.0353,0.0365,24.5686,2,15.437,16:12:57:624
-0.0069,-0.0029,-0.0785,24.5685,2,15.446,16:12:58:624
-0.0214,-0.002,-0.0366,24.5685,2,15.46,16:12:59:625
-0.0033,0.0406,-0.06,24.4217,2,38.008,16:13:00:624
0.0172,0.0055,-0.0061,24.4277,2,39.022,16:13:01:623
0.0026,0.012,-0.0393,24.5779,2,18.579,16:13:02:624
-0.0317,0.0196,0.0029,24.4283,2,43.014,16:13:03:623
-0.0096,0.038,0.0046,24.5662,2,15.455,16:13:04:624
-0.0092,-0.0233,-0.0167,24.5774,2,48.254,16:13:05:624
-0.0322,-0.0195,-0.0481,24.566,2,15.554,16:13:06:623
-0.0209,-0.0123,-0.0027,25,2,15.636,16:13:07:626
-0.0429,0.0568,0.0122,25,2,15.433,16:13:08:623
-0.0028,0.0209,-0.0185,24.5661,2,49.714,16:13:09:626
0.0077,0.0306,0.0143,24.5677,2,15.426,16:13:10:623
-0.0198,-0.0069,0.0183,25,2,15.57,16:13:11:624
-0.0089,-0.0049,0.0343,25,2,15.675,16:13:12:629
0.0072,-0.0134,0.0215,25.4335,2,15.606,16:13:13:624
0.0061,-0.0374,0.0511,25.5803,2,15.669,16:13:14:625
-0.0451,0.0265,0.0254,25.4277,2,15.554,16:13:15:624
-0.0123,-0.0046,0.0531,25,2,15.723,16:13:16:623
-0.0129,0.0118,0.0141,25,2,15.506,16:13:17:625
-0.0358,0,-0.0197,25.5791,2,15.52,16:13:18:634
-0.0368,0.0011,-0.0018,25.5742,2,15.527,16:13:19:624
-0.0104,0.0057,0.0021,26,2,15.458,16:13:20:624
-0.0136,-0.0032,0.0099,25.5662,2,15.488,16:13:21:624
0.0278,0.0443,0.005,25.5704,2,15.367,16:13:22:623
-0.0139,0.0044,0.0687,25.5653,2,18.175,16:13:23:623
-0.003,0.0254,0.0541,26,2,15.466,16:13:24:624
0.0082,0.0092,-0.0122,25.4188,2,15.59,16:13:25:624
0.0217,0.011,0.0499,25.582,2,15.495,16:13:26:626
0.0063,0.0108,0.0533,25.5664,2,15.702,16:13:27:623
-0.0087,0.029,-0.0418,26,2,15.506,16:13:28:624
-0.0099,0.0048,0.079,25.5915,2,15.565,16:13:29:624
0.0243,0.0124,-0.0336,26,2,63.611,16:13:30:624
-0.0416,0.036,-0.0581,26,2,15.686,16:13:31:626
0.0188,-0.0263,-0.0897,26,2,15.588,16:13:32:628
-0.0114,0.019,-0.0161,26,2,15.639,16:13:33:624
0.0051,-0.0182,0.0354,26,2,15.627,16:13:34:625
-0.0087,0.0073,0.0433,26,2,15.68,16:13:35:625
0.0106,0.0463,-0.0288,26,2,15.626,16:13:36:626
-0.0167,-0.0308,-0.0112,26.4208,2,15.392,16:13:37:624
-8.00E-04,0.0061,-0.0274,26,2,15.569,16:13:38:624
-0.0157,0.0053,-0.0341,26,2,15.539,16:13:39:624
0.0268,0.0057,-0.0175,26,2,15.55,16:13:40:625
0.0115,0.0428,0.0361,26,2,15.566,16:13:41:624
-0.0117,0.0124,0.0051,26,2,15.663,16:13:42:624
0.0292,-0.0295,-0.0066,26.4263,2,15.473,16:13:43:624
-0.0026,0.0535,0.008,27.4282,2,47.531,16:13:44:624
-0.0116,-0.0205,-0.0353,27,2,54.925,16:13:45:624
0.0118,-0.0197,-0.0644,27,2,74.221,16:13:46:624
-0.0131,0.015,0.0033,27,2,47.285,16:13:47:624
-0.0036,-0.0027,-0.0507,27,2,21.61,16:13:48:623
0.0026,0.024,0.0305,27.432,2,24.419,16:13:49:625
0.0109,-0.0349,-0.0197,27.5665,2,62.218,16:13:50:626
0.0196,0.0114,0.069,27.568,2,48.287,16:13:51:624
0.0086,-0.0174,0.0141,28,2,53.59,16:13:52:624
-0.0066,0.014,-0.0146,27.5735,2,45.324,16:13:53:624
-0.0303,-0.0574,-0.0387,27.5815,2,56.441,16:13:54:626
-0.0333,0.0096,-0.0524,27.5657,2,71.68,16:13:55:624
-0.011,0.025,0.018,27,2,17.766,16:13:56:625
-0.0109,0.0214,0.0288,27.5686,2,57.844,16:13:57:623
-0.0135,-0.0145,-0.0119,28,2,20.56,16:13:58:627
-0.0221,0.0294,0.0534,28,2,65.431,16:13:59:625
0.0231,-0.0015,-0.0214,28,2,36.976,16:14:00:625
-0.0204,-0.0052,-0.0315,28,2,67.536,16:14:01:625
0.0145,-0.0483,-0.0553,27.5662,2,72.939,16:14:02:624
0.0395,0.0212,0.003,26.581,2,54.565,16:14:03:623
-0.0424,-0.0266,-0.0334,27,2,49.507,16:14:04:623
-0.008,6.00E-04,0.0068,28.4164,2,51.45,16:14:05:626
0.0117,0.0069,0,28.4267,2,47.527,16:14:06:624
-0.0037,0.0133,-0.0364,28.4335,2,48.707,16:14:07:624
0.0078,0.0432,0.048,28,2,48.638,16:14:08:624
0.0051,-0.0244,0.0502,28.4131,2,40.533,16:14:09:624
0.0565,0.0182,-0.0785,28,2,15.635,16:14:10:623
-0.013,-0.0249,0.0263,28.5766,2,51.802,16:14:11:624
-0.0208,-0.0135,0.0212,28.5663,2,46.651,16:14:12:624
0.008,-0.029,-0.0042,27,2,61.357,16:14:13:624
-0.0107,-0.027,0.0243,27,2,15.557,16:14:14:624
0.0244,0.0069,-0.0466,26.5665,2,20.665,16:14:15:624
0.0346,0.0168,0.016,26.5726,2,16.158,16:14:16:624
-0.0123,-0.0164,-0.0136,28.4318,2,15.506,16:14:17:623
0.0151,0.0046,-0.0025,28.5712,2,15.488,16:14:18:624
0.0163,0.0275,0.0089,27.574,2,50.034,16:14:19:624
-0.0235,0.0285,0.055,27,2,15.566,16:14:20:624
0.0041,0.0707,0.0707,26,2,53.343,16:14:21:627
-0.0279,0.0055,0.0577,26.429,2,15.406,16:14:22:624
-0.0258,0.0242,-0.031,26.4179,2,15.618,16:14:23:624
0.0037,0.0086,-0.0233,26,2,15.49,16:14:24:624
-0.0114,-0.0386,0.0336,26.4338,2,29.098,16:14:25:624
0.0381,-0.0086,0.0123,26,2,51.172,16:14:26:624
0.0203,0.0178,-0.0213,26.4271,2,36.718,16:14:27:625
0.0038,0.0041,-0.026,26.4261,2,54.74,16:14:28:625
-0.0076,-0.0261,0.0769,26.5701,2,50.408,16:14:29:624
0.1239,0.0811,0.0327,26.4279,2,39.408,16:14:30:624
-0.016,0.0163,0.0639,26.42,2,63.955,16:14:31:624
0.0076,-0.0328,0.0449,26,2,56.223,16:14:32:623
0.0187,0.0108,-0.0161,26.4117,2,15.453,16:14:33:624
0.009,-0.0045,-0.0118,26.5756,2,42.147,16:14:34:625
-0.0114,0.0289,0.0304,26.4334,2,40.66,16:14:35:624
0.0225,-0.0185,-0.0257,26,2,15.602,16:14:36:624
-0.0099,0.0042,-0.0317,26.5661,2,15.537,16:14:37:624
-0.0027,-0.0136,0.099,26,2,15.495,16:14:38:624
-0.0027,-2.00E-04,0.0458,26,2,15.575,16:14:39:624
0.0236,0.0065,2.00E-04,26,2,15.526,16:14:40:624
-0.0189,-0.0047,-0.0403,26,2,15.403,16:14:41:623
0.0323,-0.0061,-0.0802,26,2,15.512,16:14:42:624
6.00E-04,0.0239,0.0017,26,2,15.543,16:14:43:624
-0.0169,0.0358,0.0415,26,2,15.477,16:14:44:635
0.012,0.0052,0.022,26,2,15.5,16:14:45:625
0.0298,0.0306,-0.0041,26.4316,2,49.166,16:14:46:624
0.0129,0.0269,-0.0024,26.5678,2,15.606,16:14:47:624
1.00E-04,-0.0031,-0.0129,27,2,16.371,16:14:48:624
0.0018,0.0232,-0.0424,26.4314,2,21.715,16:14:49:624
-0.0025,0.0046,0.0254,26.569,2,22.305,16:14:50:625
-0.0163,0.019,0.0164,26.569,2,42.488,16:14:51:624
-0.0038,-0.0171,0.0143,27,2,15.468,16:14:52:624
0.0236,0.0125,0.0114,27,2,15.463,16:14:53:626
-0.0087,0.0331,0.0054,26.5691,2,15.484,16:14:54:624
0.0391,0.0238,0.0483,26.4308,2,15.481,16:14:55:624
0.0103,0.0059,-0.0509,26.5683,2,15.478,16:14:56:624
0.0276,0.0055,0.036,27,2,15.433,16:14:57:625
0.0163,0.0379,-0.0133,28.4314,2,15.515,16:14:58:624
-0.0048,0.0034,0.0893,28.5716,2,15.426,16:14:59:624
-0.0062,0.018,-0.0572,28.5805,2,15.507,16:15:00:628
0.0113,0.0276,0.021,28.4329,2,15.574,16:15:01:624
0.0115,0.0159,-0.0899,28.5693,2,15.535,16:15:02:623
5.00E-04,-0.0091,-0.0023,28.5664,2,15.446,16:15:03:624
-0.0273,-0.0268,-0.0519,29,2,15.629,16:15:04:625
0.0144,0.0222,-0.0345,29,2,15.528,16:15:05:624
0.0064,0.0162,-0.0149,28.5803,2,15.548,16:15:06:625
-0.0266,-0.0042,0.0286,28.5666,2,15.501,16:15:07:624
0.0273,-0.0302,-0.082,28.572,2,15.598,16:15:08:625
9.00E-04,-9.00E-04,-0.0031,28.4293,2,15.596,16:15:09:624
0.0182,0.0038,0.0164,29,2,15.733,16:15:10:624
0.0449,0.0361,-0.0317,28.5722,2,15.568,16:15:11:625
-0.0027,0.0038,-0.0528,29,2,15.735,16:15:12:624
0.0126,-0.0096,-0.03,28.5688,2,48.562,16:15:13:625
0.0057,-0.009,0.0303,29,2,50.581,16:15:14:624
0.0265,0.0135,0.0392,29,2,39.601,16:15:15:624
0.0373,-0.0051,0.0226,29,2,39.82,16:15:16:624
0.0377,0.0211,-0.0474,29,2,31.462,16:15:17:624
0.0188,0.0207,-0.0528,28.5689,2,50.806,16:15:18:625
0.0074,0.0333,-0.0159,28.5669,2,15.599,16:15:19:624
-0.0112,-0.0075,5.00E-04,28.4336,2,55.645,16:15:20:626
-0.0035,0.0049,-0.0763,29,2,15.646,16:15:21:624
0.0079,-0.0047,0.0316,29,2,15.696,16:15:22:623
-0.0139,-5.00E-04,0.0449,29,2,15.627,16:15:23:624
0.01,0.0265,0.0323,29,2,15.639,16:15:24:625
0.0102,-0.0332,-0.0513,29,2,15.638,16:15:25:639
-0.0028,0.0451,-0.0294,29,2,15.574,16:15:26:626
0.0031,-0.0025,0.016,29,2,15.52,16:15:27:624
0.008,-0.0025,0.03,29,2,15.501,16:15:28:624
0.0043,0.0087,0.0421,29.4342,2,15.503,16:15:29:624
-0.0122,0.0284,-0.0482,29.4314,2,15.572,16:15:30:624
-0.0117,0.0021,0.0091,29,2,15.46,16:15:31:624
0.0503,0.0293,-0.0058,29.4311,2,15.566,16:15:32:624
0.0025,0.0085,0.0287,29,2,15.346,16:15:33:624
-0.0204,0.0228,0.032,29.4335,2,15.395,16:15:34:624
0.0122,0.0492,-0.0915,30,2,15.462,16:15:35:624
-0.0111,0.0019,-0.0031,29.424,2,15.43,16:15:36:625
0.025,0.0304,0.0161,29,2,15.997,16:15:37:624
0.0208,-0.0272,-0.0487,30,2,15.903,16:15:38:624
-0.0056,0.0172,-4.00E-04,29.5751,2,15.392,16:15:39:626
-0.0015,-0.0127,0.0167,29.5864,2,15.657,16:15:40:626
0.0201,-0.0086,-0.0401,30,2,15.462,16:15:41:624
-0.0262,-0.0201,0.0133,29.5662,2,15.485,16:15:42:624
-0.0225,-0.0227,0.0556,29,2,30.638,16:15:43:624
-0.0292,0.0108,0.0218,29.5765,2,15.478,16:15:44:625
-0.009,-0.0075,-0.0133,30,2,48.201,16:15:45:624
0.0132,0.0067,-0.0191,29.5653,2,15.543,16:15:46:625
0.029,0.0373,0.0102,30,2,15.475,16:15:47:624
-0.0263,0.038,-0.0046,29.575,2,15.446,16:15:48:623
-0.0016,-0.0405,-0.0103,29,2,15.482,16:15:49:624
0.0389,-0.0334,-0.0084,29.4319,2,15.568,16:15:50:624
-0.0249,-0.0075,0.0732,30,2,15.577,16:15:51:625
0.0236,-0.0106,-0.0039,29.4329,2,15.718,16:15:52:624
-0.0038,0.0159,0.0573,29,2,15.591,16:15:53:625
0.0111,-0.0059,-0.0031,29.4285,2,15.671,16:15:54:624
-0.0038,-0.0303,-0.0726,29.4336,2,15.653,16:15:55:624
0.0211,-0.0081,-0.0717,30,2,15.671,16:15:56:624
0.0103,0.0057,0.0023,29.4263,2,15.651,16:15:57:624
0.0076,-0.0111,-0.0285,29.5809,2,15.668,16:15:58:624
-0.0051,0.0274,-0.0296,29.573,2,15.606,16:15:59:624
0.0073,-0.0236,-0.0094,29.5665,2,15.647,16:16:00:624
0.0105,0.0087,-0.0237,30,2,15.584,16:16:01:625
-0.0376,0.0327,-0.0029,29.5687,2,15.594,16:16:02:624
-0.0194,0.0059,0.0335,30,2,15.528,16:16:03:625
-0.0362,0.0097,-0.0121,30,2,15.641,16:16:04:626
-0.0078,0.0244,0.0486,30,2,15.477,16:16:05:623
-0.0013,-0.0097,-0.0124,30,2,15.636,16:16:06:625
0.0178,0.0043,-0.0718,30.4315,2,15.374,16:16:07:624
0.0301,-0.0199,-0.1121,30.4316,2,15.383,16:16:08:624
0.0031,0.0209,0.0112,30,2,15.517,16:16:09:624
0.0049,-0.0112,-0.0193,30,2,15.521,16:16:10:625
0.0462,0.0456,0.0036,30,2,15.516,16:16:11:624
0.0029,0.0025,-0.0619,30.5717,2,15.491,16:16:12:626
-0.0042,-0.0216,-0.0605,30.4269,2,15.438,16:16:13:624
0.0059,0.0246,-0.0175,30.5725,2,15.53,16:16:14:627
0.0337,0.0173,0.0362,31,2,67.069,16:16:15:626
-0.0144,-4.00E-04,-0.0051,30.4335,2,46.381,16:16:16:624
0.0158,0.0058,0.0207,30.5745,2,20.564,16:16:17:624
0.0048,0.0135,-0.0154,30.5685,2,15.586,16:16:18:624
-0.0044,0.0164,0.0289,30.5681,2,15.542,16:16:19:623
-0.0135,0.01,0.0904,30.5678,2,15.661,16:16:20:632
0.0141,0.0318,-0.0733,31,2,15.581,16:16:21:624
0.0122,0.037,-0.0588,30.4326,2,15.471,16:16:22:624
-0.0314,-0.0167,0.0212,29.5676,2,15.585,16:16:23:623
-0.0586,0.0441,-0.0513,29.5677,2,41.475,16:16:24:624
0.0093,0.0047,-0.0228,27,2,15.528,16:16:25:624
0.0273,0.0077,7.00E-04,26.5678,2,45.443,16:16:26:625
-0.016,0.0144,-0.0435,27,2,15.449,16:16:27:624
0.0315,-0.0307,-0.0221,27,2,15.563,16:16:28:624
0.0301,2.00E-04,0.0622,27.5678,2,15.639,16:16:29:624
-0.0164,0.0085,0.0854,27.5677,2,39.655,16:16:30:624
0.0505,0.0215,0.0118,27.4324,2,41.443,16:16:31:624
0.0078,0.0462,0.0352,27.5677,2,26.312,16:16:32:624
0.0291,0.0406,0.0234,27.4323,2,15.67,16:16:33:623
-0.0018,0.0171,-0.0636,28.5675,2,44.54,16:16:34:623
-0.0012,0.0241,0.0787,29,2,15.446,16:16:35:624
-0.0298,0.0265,-0.0518,28.5665,2,15.47,16:16:36:624
0.0544,-0.0265,0.0087,29,2,15.441,16:16:37:625
0.0036,0.0035,-0.0436,28.5663,2,15.333,16:16:38:624
-0.0111,0.0105,-0.0221,28.4332,2,15.408,16:16:39:624
0.0175,0.0144,-0.0062,28.4319,2,15.525,16:16:40:624
0.0016,0.0011,-0.0324,28.5684,2,16.544,16:16:41:623
0.0164,-0.0342,0.002,28.5665,2,44.921,16:16:42:624
-0.0142,-0.0154,-0.0602,29,2,51.979,16:16:43:624
-0.011,0.0014,0.0717,28.4314,2,15.556,16:16:44:624
0.0163,-0.0323,0.0261,28.4323,2,36.969,16:16:45:623
-0.0068,-1.00E-04,0.0117,28.5694,2,49.855,16:16:46:624
-0.0514,0.0105,0.0456,28,2,15.48,16:16:47:626
-0.0069,0.0042,-0.032,28.5731,2,15.597,16:16:48:625
-0.0257,-0.0522,-0.0306,29,2,32.87,16:16:49:624
9.00E-04,0.0106,-0.0376,28.5724,2,51.725,16:16:50:624
-0.0092,-0.0176,-0.0068,29,2,15.937,16:16:51:624
0.0014,-0.0159,0.0112,28.4285,2,15.497,16:16:52:634
0.0021,0.0409,0.0292,28.5727,2,15.597,16:16:53:630
-0.0106,-0.0085,-0.0055,28.5724,2,30.554,16:16:54:625
0.0361,0.0081,0.0108,28.4344,2,15.545,16:16:55:624
0.0083,0.0281,-0.0065,28.5656,2,15.676,16:16:56:623
-0.0147,-0.0053,0.0086,28.5656,2,15.643,16:16:57:624
-0.0022,0.0351,0.0163,28.5655,2,15.537,16:16:58:623
-0.0238,-0.0488,0.033,29,2,15.68,16:16:59:624
-0.0159,-8.00E-04,0.0122,29,2,15.496,16:17:00:624
0.018,0.0215,0.0016,29,2,15.445,16:17:01:626
-0.0257,-0.02,-0.0502,29.8669,2,15.578,16:17:02:624
-0.0067,-0.0101,0.053,30.5665,2,15.44,16:17:03:624
-0.0286,-0.0087,0.0759,30.5779,2,44.351,16:17:04:624
-0.0307,-0.0467,0.0397,31,2,35.831,16:17:05:623
-0.0361,-0.0189,0.0432,30.5799,2,15.58,16:17:06:624
-0.0361,-0.0053,0.0366,30.5798,2,15.599,16:17:07:624
-0.0087,-0.0099,0.0283,30.5733,2,44.457,16:17:08:624
0.0142,0.0153,-0.0154,30,2,48.535,16:17:09:624
-0.0542,-0.025,0.018,30,2,15.699,16:17:10:625
-0.0046,0.0513,-0.02,29.4332,2,15.56,16:17:11:627
-0.014,0.0259,0.0253,29.4332,2,15.593,16:17:12:624
0.0031,-0.0178,-0.0268,29.5671,2,15.527,16:17:13:624
-0.018,-0.0221,-1.00E-04,29.5766,2,15.589,16:17:14:625
-0.0105,-0.0156,0.0337,30,2,15.641,16:17:15:624
-0.0056,-0.0103,-0.0334,29.5662,2,15.559,16:17:16:624
-0.0166,-0.0129,-0.0034,29.5667,2,15.591,16:17:17:624
0.0082,-0.0153,0.0766,29.5667,2,15.693,16:17:18:624
-0.0319,-0.0527,-0.0541,29,2,41.203,16:17:19:624
0.0023,-0.0455,-0.0037,29,2,38.487,16:17:20:624
-0.0255,-0.0386,-0.0464,28.4189,2,15.469,16:17:21:624
-0.0217,-0.0141,-0.0152,29,2,15.549,16:17:22:624
0.0277,-0.0054,-0.0076,28.5707,2,15.619,16:17:23:628
-0.0182,-0.0301,0.0378,28.5753,2,41.424,16:17:24:624
-0.0174,0.0093,0.006,29,2,15.381,16:17:25:624
-0.023,0.0118,-0.0057,29,2,19.513,16:17:26:626
0.003,-0.0261,0.045,29,2,41.625,16:17:27:624
0.0033,0.022,0.0201,29,2,15.616,16:17:28:628
-0.0155,-0.01,-0.0375,29.4342,2,15.445,16:17:29:625
-0.0378,0.0288,0.0581,29.4312,2,15.566,16:17:30:624
0.0074,0.0109,-0.004,29,2,15.798,16:17:31:624
-0.0123,0.0113,0.0513,29,2,17.543,16:17:32:624
0.0085,0.0011,0.0234,29,2,15.855,16:17:33:624
0.0218,-0.0111,0.0146,29,2,25.944,16:17:34:624
0.0293,-0.0066,-0.0173,29.4316,2,15.47,16:17:35:625
-0.0101,0.0289,0.0412,29.4316,2,15.672,16:17:36:623
0.0201,-0.0033,0.013,29,2,15.58,16:17:37:623
0.0068,-0.0288,0.0387,28.5691,2,15.623,16:17:38:625
0.0045,-0.0026,0.0576,29.5688,2,15.57,16:17:39:623
0.0602,-0.019,-0.0306,29.5688,2,15.602,16:17:40:623
0.0131,0.0116,-0.0022,29,2,15.493,16:17:41:624
0.0122,0.0205,0.0059,29,2,15.555,16:17:42:626
-0.0084,0.0012,0.1001,29,2,15.558,16:17:43:624
0.0265,-0.0139,-0.0472,29,2,15.586,16:17:44:626
0.0332,-0.0198,-0.0023,29.4312,2,15.435,16:17:45:625
0.0032,0.0298,0.0128,29,2,15.543,16:17:46:624
0.0373,0,0.0209,29,2,15.583,16:17:47:624
-0.0163,-0.0157,0.0096,29.4313,2,15.424,16:17:48:624
-0.0156,0.016,-0.0054,29.4313,2,16.846,16:17:49:625
0.001,0.022,-0.0757,29.4316,2,17.041,16:17:50:624
0.0234,-0.007,-0.0453,29,2,15.45,16:17:51:624
0.0325,0.0541,0.0536,29.4312,2,15.569,16:17:52:623
0.0248,-0.0173,0.0677,30.4313,2,15.581,16:17:53:624
0.0095,0.0062,0.0108,29.5688,2,15.494,16:17:54:624
-0.0034,0.0113,-0.0086,28.5866,2,42.264,16:17:55:624
0.01,-0.0238,-0.0075,28.4272,2,15.487,16:17:56:625
0.0035,0.0178,-0.0484,29,2,15.638,16:17:57:623
-0.0167,-0.0404,-0.0099,29,2,15.573,16:17:58:624
0,0.0247,0.0133,29,2,15.564,16:17:59:628
0.0243,0.0389,0.0584,29,2,15.586,16:18:00:624
0.0018,0.0353,-0.0065,28.4194,2,15.514,16:18:01:624
0.0378,0.0667,0.0539,28.4194,2,15.645,16:18:02:623
0.0026,-0.0071,0.0359,28.4194,2,15.434,16:18:03:624
0.0021,0.0191,0.0555,28.4194,2,15.454,16:18:04:624
0.0095,-0.0153,-0.0088,28.4194,2,15.6,16:18:05:623
-0.0391,0.0225,0.0064,28.4194,2,15.519,16:18:06:624
0.0025,0.0026,0.0545,29,2,15.474,16:18:07:624
-0.005,5.00E-04,0.0145,29.5663,2,15.629,16:18:08:624
-0.0067,-0.0055,0.0105,29,2,15.5,16:18:09:624
-0.005,-0.013,-0.0144,29,2,15.502,16:18:10:625
0.0019,0.0436,0.0345,28.5698,2,15.473,16:18:11:624
-0.0103,-0.0272,0.0317,28.5731,2,15.537,16:18:12:623
-0.0152,0.0237,-0.0063,29,2,15.455,16:18:13:626
0.0436,0.0168,0.0146,28.5881,2,43.777,16:18:14:624
0.017,0.0258,-0.0298,29,2,15.617,16:18:15:625
-0.0302,0.0031,-0.0339,28.5665,2,15.54,16:18:16:623
0.0049,0.0166,-8.00E-04,29,2,15.652,16:18:17:624
-0.0222,0.0235,0.0518,29,2,15.596,16:18:18:624
0.0039,-0.025,-0.0096,29,2,15.6,16:18:19:625
0.002,0.0063,-7.00E-04,29,2,15.598,16:18:20:625
-0.0058,0.0013,0.0098,29,2,15.658,16:18:21:625
-0.0033,0.0073,0.0298,29,2,15.563,16:18:22:624
0.0085,-0.0374,0.0114,29,2,15.592,16:18:23:623
0.022,-0.0145,0.06,29.4316,2,15.423,16:18:24:624
-0.0119,0.0414,0.0592,29,2,15.512,16:18:25:624
0.0077,-0.0322,-0.0318,29,2,15.498,16:18:26:624
0.0036,0.0159,-0.0112,28.4313,2,63.441,16:18:27:624
0.0056,0.0068,-0.0069,28.569,2,51.534,16:18:28:624
-0.0289,-0.0192,0.0163,28.5744,2,47.227,16:18:29:624
-0.0251,0.0106,-0.0363,28.4312,2,15.624,16:18:30:625
0.0327,0.0011,0.014,28.4312,2,15.554,16:18:31:624
-5.00E-04,0.0026,-0.0017,29.5685,2,15.647,16:18:32:623
-0.0112,0.0053,-0.0144,29,2,15.285,16:18:33:624
-5.00E-04,0.0328,0.0691,29,2,15.54,16:18:34:625
-0.024,-0.016,0.0113,29,2,15.547,16:18:35:624
0.0025,0.0295,-0.0028,29,2,15.5,16:18:36:624
0.0218,-0.0161,-0.0296,29,2,52.323,16:18:37:624
6.00E-04,0.0344,-0.0526,31.4228,2,40.673,16:18:38:624
-0.0056,-0.0308,0.0116,31,2,15.565,16:18:39:624
-0.0204,3.00E-04,-0.0052,30.4314,2,15.766,16:18:40:624
-0.0129,-0.0039,0.0705,30,2,15.617,16:18:41:624
0.0196,-0.0191,0.0529,30,2,15.661,16:18:42:625
-0.0149,0.0063,-0.0795,29.5688,2,15.678,16:18:43:625
-0.0151,0.0182,-0.0404,29.566,2,15.742,16:18:44:628
0.0207,-0.0021,0.0604,29.5664,2,15.667,16:18:45:625
-0.0155,0.0533,-0.0344,29.5676,2,15.683,16:18:46:624
0.0295,-0.026,2.00E-04,29.5803,2,15.692,16:18:47:623
-0.0051,0.0019,0.0222,29.5812,2,15.663,16:18:48:625
-7.00E-04,0.0069,-0.0093,30,2,15.675,16:18:49:623
0.0057,-0.0094,0.0481,29.5685,2,15.591,16:18:50:626
-0.017,-0.0157,-0.0382,29.5687,2,56.485,16:18:51:625
0.0252,0.0244,-0.0513,30.5692,2,29.908,16:18:52:624
0.0224,-0.0154,-0.1515,27,2,37.224,16:18:53:625
-0.0183,-0.0512,0.0542,27.4323,2,19.947,16:18:54:624
0.0046,0.0165,0.003,27.4299,2,15.429,16:18:55:624
-0.0021,0.0122,-0.0334,28.431,2,15.479,16:18:56:625
0.0175,-0.0027,-0.008,28.5752,2,15.414,16:18:57:625
-0.0081,-0.0313,-0.0272,30,2,15.37,16:18:58:624
-0.0044,-0.0248,0.0774,31.4317,2,15.459,16:18:59:624
-0.0044,-0.0101,-0.0453,31.5686,2,15.555,16:19:00:624
0.0197,-0.0199,-0.0462,31.5684,2,15.483,16:19:01:625
0.057,-0.0226,0.0087,31.5692,2,15.477,16:19:02:625
-0.0153,0.0168,-1.00E-04,32,2,18.779,16:19:03:624
-0.0206,-0.0097,-0.0301,31.5687,2,15.498,16:19:04:626
0.0314,-0.0414,0.0078,31.5672,2,15.496,16:19:05:623
0.0039,0.0189,0.0324,31.4318,2,15.618,16:19:06:623
-0.0154,0.0016,-0.0427,32,2,15.533,16:19:07:625
0.0026,-0.0397,0.0574,31.5721,2,51.342,16:19:08:626
-0.0158,0.009,0.0493,31.5813,2,39.509,16:19:09:626
-0.0017,-0.0021,-0.0224,32,2,15.481,16:19:10:624
-0.0128,-0.0129,-0.0731,31.5821,2,15.475,16:19:11:623
0.0089,-0.0271,-0.0062,30.5803,2,15.55,16:19:12:624
-0.0357,0.0319,0.0284,29.1419,2,64.385,16:19:13:624
-0.0357,-0.0135,0.0222,28.4332,2,37.9,16:19:14:623
0.0209,-0.0038,0.0108,28.5802,2,15.463,16:19:15:624
-0.035,0.0148,-0.049,28.5679,2,15.503,16:19:16:624
-0.023,-0.0713,0.0527,28.5757,2,15.485,16:19:17:624
-0.0279,0.0154,-0.0154,28.5667,2,15.587,16:19:18:625
-0.0246,-0.0307,-0.0339,28.5766,2,40.721,16:19:19:624
0.003,-0.0224,-0.1176,28.4345,2,37.695,16:19:20:624
-0.1907,-0.0177,-0.2027,30.8687,2,51.785,16:19:21:623
0.0026,0.0172,0.0052,31.5656,2,15.569,16:19:22:624
-0.0099,-0.0541,-0.0486,31.5732,2,15.499,16:19:23:624
-0.007,-0.0247,-0.0573,31,2,30.754,16:19:24:625
-0.028,-0.0385,-0.0314,31.4338,2,15.905,16:19:25:624
-0.0397,0.048,-0.0278,31.4338,2,15.439,16:19:26:624
-0.0141,-0.0482,-0.1145,33,2,55.256,16:19:27:624
-0.0124,0.0113,0.0069,33,2,31.218,16:19:28:624
0.0136,0.0171,0.0744,32.5687,2,44.007,16:19:29:626
0.0022,-0.0571,0.0931,32,2,27.52,16:19:30:625
0.0281,0.022,0.0115,32,2,37.501,16:19:31:625
0.0029,0.0233,-0.007,32,2,59.938,16:19:32:624
-0.0185,0.0185,-0.0142,32.5678,2,36.086,16:19:33:624
-8.00E-04,-0.0226,0.045,32.4341,2,15.531,16:19:34:624
-0.0228,-0.0459,0.0643,32.4245,2,33.843,16:19:35:624
0.0124,0.0083,-0.0028,32.4184,2,22.778,16:19:36:625
-0.0109,-0.0688,0.0497,32.4272,2,39.158,16:19:37:624
-0.0228,-0.0285,-0.0526,32.4341,2,43.255,16:19:38:624
-0.0187,0.0119,0.0165,32.4319,2,45.068,16:19:39:624
-0.0092,-0.0415,0.0319,33.4336,2,50.11,16:19:40:624
0.006,-0.0317,0.0112,33.5724,2,54.848,16:19:41:624
0.0133,0.049,0.061,33.5818,2,33.071,16:19:42:626
0.0172,-3.00E-04,0.0096,33.5811,2,38.348,16:19:43:624
-0.0435,-0.0112,0.0085,33,2,16.347,16:19:44:634
-0.008,-0.0015,-0.0381,32.4288,2,26.427,16:19:45:624
0.0109,-0.0019,-0.0421,33,2,15.433,16:19:46:624
-0.0048,-0.029,0.044,32.5669,2,15.552,16:19:47:624
0.0111,0.0341,0.0418,32.4143,2,15.573,16:19:48:625
-0.0199,0.0106,-0.0261,31.5792,2,15.532,16:19:49:624
0.0015,0.0053,0.0444,31.5733,2,76.71,16:19:50:624
-0.008,0.0262,-0.0699,30.575,2,15.603,16:19:51:636
0.0191,0.0313,0.0081,30.5722,2,15.511,16:19:52:624
0.0163,-0.0248,-0.0113,31,2,15.512,16:19:53:623
0.0304,-0.015,0.0013,30.5811,2,15.5,16:19:54:624
0.0175,-0.022,0.0201,30.4193,2,15.648,16:19:55:624
0.0378,-0.0152,0.0222,30.5663,2,15.475,16:19:56:624
0.0067,0.0249,-0.0301,30.5802,2,15.6,16:19:57:625
0.006,0.0347,-0.0231,30.577,2,15.506,16:19:58:625
0.0127,0.0128,-0.047,30.5663,2,15.53,16:19:59:624
-0.0241,-0.0178,0.0521,31,2,15.572,16:20:00:626
0.0031,-7.00E-04,0.0015,31,2,15.623,16:20:01:624
0.0304,0.0284,-0.0032,31.4257,2,15.526,16:20:02:623
-0.0249,-0.0169,-0.0071,32.4237,2,36.457,16:20:03:625
-0.0117,-0.0137,-0.0208,33.4316,2,15.4,16:20:04:624
0.0202,0.0123,0.0246,33,2,15.533,16:20:05:624
0.005,0.0146,-0.0266,33,2,15.638,16:20:06:624
-0.0116,-0.0293,-0.0235,33,2,15.564,16:20:07:624
-0.0026,0.0153,0.0097,33,2,15.544,16:20:08:625
-0.0106,0.0244,-0.0564,33,2,15.501,16:20:09:624
0.0269,-0.0341,-0.039,33,2,15.418,16:20:10:624
-0.0037,-0.012,-0.047,33.5662,2,15.673,16:20:11:624
0.017,0.0186,-0.052,33.4318,2,15.561,16:20:12:624
0.0311,0.0293,-0.0411,33.4141,2,15.557,16:20:13:624
-7.00E-04,-0.0061,-0.0332,33.4204,2,34.297,16:20:14:623
0.0119,0.0022,0.0257,33.4292,2,33.89,16:20:15:625
0.0143,-0.0011,-0.0102,32.3983,2,32.315,16:20:16:623
-0.0073,-0.0197,-0.0592,32.5764,2,20.715,16:20:17:625
0.0259,0.0038,0.0029,32.5759,2,15.666,16:20:18:624
3.00E-04,0.0191,0.0464,32.5701,2,15.642,16:20:19:623
-0.0079,-0.0046,0.05,32.57,2,15.66,16:20:20:624
-0.0133,0.0416,-0.0453,33,2,15.68,16:20:21:624
0.0118,0.0105,0.0738,33,2,42.561,16:20:22:624
-0.0171,-0.0117,-0.0033,32.4257,2,15.569,16:20:23:626
0.0065,-0.0234,-0.0487,32.4278,2,15.639,16:20:24:625
-0.0105,-0.0115,-0.0065,32.572,2,15.469,16:20:25:625
0.0245,0.0198,-0.0487,32.5677,2,15.748,16:20:26:625
9.00E-04,0.0015,0.0213,32.5733,2,15.358,16:20:27:625
0.0043,-0.0041,-0.0124,32.5728,2,15.411,16:20:28:623
0.033,0.0191,0.0216,32,2,15.525,16:20:29:625
0.0196,0.0258,0.0534,32.5728,2,15.471,16:20:30:624
0.0013,0.0012,-0.0241,32.4323,2,15.535,16:20:31:624
0.0132,-0.0057,-0.0628,32.5733,2,15.529,16:20:32:627
0.0249,0.0178,0.0213,32,2,15.504,16:20:33:624
0.0148,-0.0155,-0.0272,32.43,2,15.538,16:20:34:623
0.0239,0.0039,-0.0078,32.4275,2,15.529,16:20:35:624
0.004,-0.0028,0.0232,32,2,15.572,16:20:36:624
-1.00E-04,-0.0067,-0.0064,31.5724,2,40.451,16:20:37:624
0.0046,-0.0116,0.0609,32,2,15.532,16:20:38:624
0.0169,-0.0073,0.0503,32,2,53.984,16:20:39:624
0.0054,0.0021,-0.0524,32.4261,2,47.54,16:20:40:624
-0.0181,-0.0209,-0.0118,32.5729,2,51.951,16:20:41:624
0.0156,-0.0287,0.0472,32,2,15.617,16:20:42:626
0.0333,0.0181,-0.026,32,2,45.408,16:20:43:625
-0.0132,-0.0063,0.0336,32,2,62.306,16:20:44:624
-0.0267,0.029,-0.0434,32,2,16.219,16:20:45:624
0.0185,0.0648,-0.0071,32,2,15.523,16:20:46:644
0.022,0.0111,-0.0186,31.427,2,15.461,16:20:47:625
0.0198,-0.0202,0.0081,32,2,15.587,16:20:48:623
-0.0158,-0.0011,-0.0081,30.5755,2,42.864,16:20:49:624
-0.0051,-0.0411,-0.0262,31.4182,2,15.484,16:20:50:625
-0.033,0.0326,-0.0034,32,2,34.032,16:20:51:623
-0.0069,-0.0065,-0.0536,32,2,40.23,16:20:52:625
-0.0023,-0.0463,-0.0206,30.4336,2,51.565,16:20:53:625
0.0051,0.0123,2.00E-04,31.4324,2,38.229,16:20:54:625
-0.0126,0.0058,-0.0149,31.4193,2,44.937,16:20:55:623
-0.034,0.0345,0.0076,31.5664,2,31.648,16:20:56:624
0.0059,-0.0075,0.0825,31.5928,2,19.006,16:20:57:624
0.035,0.0023,0.0076,31.4337,2,15.495,16:20:58:624
-0.0262,0.0165,0.009,31.5768,2,15.527,16:20:59:623
0.0136,0.0221,-0.0175,31.5814,2,15.565,16:21:00:626
0.0124,-0.0015,-0.0125,31.5814,2,15.468,16:21:01:624
-0.0064,-8.00E-04,0.0547,31,2,15.576,16:21:02:624
-0.0238,-0.0335,0.0423,31.5979,2,15.539,16:21:03:623
0.0016,-0.0315,-0.0636,31,2,32.928,16:21:04:624
-0.0048,-0.0091,-0.0214,31,2,48.383,16:21:05:625
-0.0169,-0.002,0.0448,31,2,50.613,16:21:06:625
-0.03,-0.0388,0.0266,31.5663,2,40.926,16:21:07:624
-0.0438,-0.0137,-0.0458,31.5666,2,59.508,16:21:08:625
-0.0147,-0.0277,-0.0588,31,2,27.303,16:21:09:624
0.003,-0.0022,0.031,31,2,15.57,16:21:10:644
-0.0163,0.0164,-0.0196,31.5728,2,15.686,16:21:11:637
8.00E-04,-0.0175,0.0393,31.4321,2,15.755,16:21:12:624
0.0064,8.00E-04,-0.0076,31.4247,2,27.364,16:21:13:626
0.0273,-0.0096,0.0343,31.5656,2,15.553,16:21:14:625
1.00E-04,0.0054,-0.0113,31.4204,2,15.622,16:21:15:626
0.0087,-0.0314,-0.083,31.4285,2,15.628,16:21:16:625
0.0346,-0.0338,0.0238,31.419,2,15.598,16:21:17:625
0.0214,0.0208,0.0613,31.4193,2,15.419,16:21:18:640
0.0192,0.0164,-0.0033,31,2,15.391,16:21:19:623
-0.0028,0.0126,0.0347,31.4274,2,15.398,16:21:20:623
0.0019,0.0095,-0.0065,31.5713,2,15.416,16:21:21:624
0.0179,-0.0032,0.0311,31,2,15.501,16:21:22:625
-0.0181,0.0096,0.0045,31,2,15.505,16:21:23:624
-0.0206,-0.0011,0.0945,31.4199,2,15.458,16:21:24:625
0.0043,0.0135,0.0415,31,2,15.52,16:21:25:624
-0.0367,-0.0127,0.0263,31,2,45.019,16:21:26:626
0.0071,-0.0132,0.0018,31,2,15.633,16:21:27:625
-0.0249,0.0219,0.0037,31,2,15.464,16:21:28:624
-0.015,0.0134,-2.00E-04,31,2,15.534,16:21:29:645
-0.0244,0.0084,0.1025,31,2,22.32,16:21:30:626
0.0086,0.0193,-0.0193,31.4182,2,15.574,16:21:31:624
-0.0251,0.018,0.0254,31.5662,2,38.314,16:21:32:632
0.0459,0.0027,0.0557,31.4199,2,42.943,16:21:33:624
-0.01,0.0302,-0.0412,31.4336,2,50.408,16:21:34:624
0.0338,-0.0287,0.0231,31,2,33.031,16:21:35:624
-0.0049,-5.00E-04,-0.042,31.4314,2,52.159,16:21:36:626
0.0026,-0.0012,-0.0393,31.4179,2,49.127,16:21:37:626
-9.00E-04,0.0496,0.0042,31.5744,2,39.403,16:21:38:625
0.0477,-0.0163,0.0236,31.416,2,38.157,16:21:39:625
-0.0434,4.00E-04,0.0018,31.4212,2,15.515,16:21:40:624
-0.0161,-0.0167,0.0282,31.5826,2,29.445,16:21:41:626
-2.2025,-0.4832,3.5042,27.4314,0,17.619,16:21:42:623
0.0565,-0.0153,-0.0796,27.8573,2,47.9,16:21:43:624
-0.0181,-0.0107,-0.0232,25,2,36.097,16:21:44:624
-0.0105,-0.0218,-0.0219,22.5664,2,15.525,16:21:45:623
8.00E-04,0.017,0.0339,29.4278,2,15.501,16:21:46:624
-0.0257,-0.0248,-0.031,29.5664,2,15.516,16:21:47:623
-0.0187,-0.0346,-0.0199,29.6069,2,23.424,16:21:48:623
-0.0057,-0.0422,-0.059,29.5664,2,15.538,16:21:49:623
8.00E-04,0.0133,0.0287,29.5687,2,29.411,16:21:50:624
-0.0124,-0.0036,0.0904,29.5656,2,24.526,16:21:51:624
0.0144,-0.0231,0.0195,29.5664,2,21.381,16:21:52:623
-0.0013,-0.0251,0.3421,30,2,41.187,16:21:53:624
0.0399,-0.0455,0.0659,30,2,21.225,16:21:54:624
0.005,-0.0506,0.4678,30,2,59.089,16:21:55:624
0.0032,0.0028,-0.0091,30,2,15.612,16:21:56:624
0.0098,-0.028,0.0313,30,2,15.642,16:21:57:624
-0.0062,0.0036,0.0748,30,2,62.645,16:21:58:626
2.00E-04,0.0087,0.0034,30.5665,2,15.542,16:21:59:624
-0.005,0.0031,0.0256,30,2,15.474,16:22:00:624
-0.0112,-0.0199,-0.0323,29.4269,2,15.451,16:22:01:624
-0.0087,-0.0157,-0.0306,30.4279,2,15.4,16:22:02:624
0.0061,-0.0107,-0.025,30.5667,2,27.549,16:22:03:623
-0.0276,-0.0019,0.029,28.5667,2,46.326,16:22:04:623
-0.0133,0.0072,-0.0073,28.4081,2,53.149,16:22:05:624
0.0199,-0.0146,-0.0194,29.5671,2,42.076,16:22:06:625
-0.0193,0.0094,0.0225,29.5701,2,54.986,16:22:07:624
6.00E-04,0.021,0.0394,29.4272,2,58.783,16:22:08:624
0.0081,0.0109,0.0277,29.4328,2,57.81,16:22:09:629
5.00E-04,0.0376,-0.0599,29,2,15.659,16:22:10:623
0.007,0.0103,-0.0154,29,2,15.502,16:22:11:625
-0.0063,0.0026,0.0275,29,2,15.655,16:22:12:625
0.0195,0.0038,0.0214,29.5723,2,15.6,16:22:13:624
-0.0099,0.0049,-0.0245,29.427,2,45.397,16:22:14:623
-0.0287,-0.0322,-0.0037,29.4279,2,15.62,16:22:15:624
0.0155,0.0143,0.0119,29.4319,2,15.678,16:22:16:624
0.007,0,0.0051,29,2,48.18,16:22:17:624
0.026,0.0232,-0.0652,29,2,17.657,16:22:18:624
-0.0018,-0.0287,0.0177,29,2,15.689,16:22:19:624
-0.0144,-0.0098,-0.0077,29,2,15.621,16:22:20:626
-0.0084,-0.0102,-0.0478,28.4342,2,15.581,16:22:21:624
0.0122,-0.0059,-0.0273,28.5681,2,15.591,16:22:22:625
-0.0408,-0.0294,0.0419,28.4327,2,42.36,16:22:23:624
-0.0207,0.024,0.0258,28.5677,2,15.541,16:22:24:629
-0.0106,0.0115,-0.0346,28.4344,2,52.573,16:22:25:624
0.0097,0.0089,-0.034,28.5665,2,15.494,16:22:26:625
0.0061,-0.0289,-0.0023,28.4314,2,20.774,16:22:27:624
0.0413,-0.0363,-0.0246,28.5665,2,15.511,16:22:28:624
0.0149,0.0136,0.0097,28.5734,2,15.5,16:22:29:624
-0.0294,0.0248,0.0142,27,2,55.778,16:22:30:623
-0.0109,0.0162,0.026,26.4333,2,60.204,16:22:31:624
-0.0062,-0.0583,-0.0149,27,2,52.388,16:22:32:625
0.0126,-0.0517,-0.0116,27.4332,2,47.856,16:22:33:623
0.0262,0.0047,0.0543,28.4199,2,15.551,16:22:34:624
-0.0262,-0.0132,-0.022,28.4196,2,29.899,16:22:35:628
-0.0096,0.0433,-0.0122,28,2,15.602,16:22:36:624
0.0271,0.0012,0.0165,28,2,43.141,16:22:37:626
-5.00E-04,0.0138,-0.0089,28,2,15.573,16:22:38:624
0.0306,0.0262,0.0078,28,2,15.591,16:22:39:624
0.008,-0.0218,0.0479,28,2,35.925,16:22:40:624
0.0138,0.0247,-0.0021,28,2,15.702,16:22:41:624
-0.0021,0.0051,0.0445,28.569,2,15.652,16:22:42:625
-0.0108,0.004,0.0653,28.433,2,15.666,16:22:43:624
-0.0129,0.0394,-0.0114,28.569,2,15.606,16:22:44:624
-5.00E-04,0.0125,0.0127,28.5686,2,47.565,16:22:45:624
0.0295,0.0217,-0.0203,27.5731,2,15.62,16:22:46:625
0.0114,0.0174,0.0113,27.4314,2,15.562,16:22:47:624
0.0035,0.0022,-0.0049,27.5686,2,59.593,16:22:48:624
-0.0139,0.0268,-0.0418,28.5689,2,58.158,16:22:49:624
0.0435,-0.0206,-0.0135,28.5688,2,49.949,16:22:50:624
-0.0185,-0.0059,-0.0083,28.5687,2,50.428,16:22:51:624
0.046,0.0494,-0.0293,29,2,32.352,16:22:52:624
0.0075,-0.0071,-0.012,29,2,49.75,16:22:53:624
0.0175,-0.0038,-0.0338,28.5716,2,15.501,16:22:54:624
0.0166,-0.0248,-0.072,28.5662,2,46.024,16:22:55:623
-0.0141,-0.0143,-0.0653,28.426,2,15.501,16:22:56:623
-0.0115,0.013,0.0442,28.4228,2,53.982,16:22:57:624
0.0286,-0.0355,-9.00E-04,28.4335,2,32.885,16:22:58:624
0.0016,-0.0144,0.0385,28.4317,2,47.723,16:22:59:625
-0.0105,0.042,0.9606,28,2,50.277,16:23:00:624
-0.0461,0.0044,-0.0173,28.4313,2,53.117,16:23:01:624
-0.0017,-0.011,0.0497,29.4317,2,38.081,16:23:02:625
0.0203,0.0392,-0.031,30,2,43.704,16:23:03:625
-0.0044,-0.0377,-0.0564,30,2,35.996,16:23:04:624
0.0234,-0.0215,0.0026,30.5689,2,15.504,16:23:05:624
0.0148,0.0673,0.0987,30.5686,2,58.838,16:23:06:624
0.0492,-0.0419,0.0229,29.5704,2,65.42,16:23:07:623
-0.0034,-0.0133,0.0472,28,2,52.218,16:23:08:624
0.03,0.0248,-0.019,29.4314,2,53.411,16:23:09:624
-0.0207,-0.0092,0.0489,30,2,40.019,16:23:10:624
-0.0197,0.0116,-0.0147,29.5689,2,27.3,16:23:11:625
0.0397,0.0014,-0.034,29.5688,2,15.697,16:23:12:625
0.0046,0.0308,-0.0014,29.5685,2,15.698,16:23:13:624
0.0161,0.0088,0.0011,30,2,15.607,16:23:14:624
0.0311,0.0361,-0.0214,29.4319,2,15.597,16:23:15:628
0.0282,0.05,0.0365,25,2,53.976,16:23:16:624
0,-0.0072,-0.0925,24.5823,2,15.581,16:23:17:624
-2.00E-04,-0.0053,-0.0486,24.5876,2,15.722,16:23:18:626
0.012,0.0294,0.0203,24,2,37.26,16:23:19:626
-0.0572,0.0046,0.0097,24,2,24.126,16:23:20:624
0.0042,-0.0271,-0.0824,24.4333,2,15.627,16:23:21:625
-0.0092,0.0125,0.0572,25,2,15.646,16:23:22:624
0.0119,0.019,0.0198,23.1591,2,21.065,16:23:23:624
0.0013,0.0283,-0.0024,23.5686,2,15.711,16:23:24:624
0.0163,0.0103,-0.0754,22.4309,2,15.72,16:23:25:624
-0.0165,-0.0079,0.05,22.5686,2,18.192,16:23:26:625
-0.0322,0.0069,0.0154,22.569,2,43.498,16:23:27:625
-0.0118,0,0.0343,23.4318,2,40.031,16:23:28:624
0.0232,3.00E-04,0.0515,21.5685,2,15.53,16:23:29:624
0.0198,-0.0164,0.0085,22.4317,2,15.424,16:23:30:625
0.0098,0.0036,0.0278,24.5687,2,15.408,16:23:31:624
0.0224,0.0106,0.0877,24,2,15.439,16:23:32:624
0.0214,-0.0078,0.0124,21.5685,2,15.414,16:23:33:624
0.006,-0.0025,0.0031,21,2,15.48,16:23:34:625
0.0072,-0.0176,0.0279,23,2,36.812,16:23:35:625
0.0065,-0.0258,0.0497,23.4335,2,15.486,16:23:36:624
0.0031,0.0308,0.0313,23,2,32.518,16:23:37:624
6.00E-04,-0.009,-0.0309,23.5808,2,15.599,16:23:38:624
0.0053,-0.0329,0.0231,23.429,2,15.496,16:23:39:624
-0.0152,0.0133,0.0333,23.5755,2,15.504,16:23:40:627
0.0315,-0.0187,-0.0183,23.5813,2,35.405,16:23:41:626
-0.0176,-0.0181,-0.0154,22,2,42.663,16:23:42:624
0.0063,-0.0152,0.0606,22.8283,2,15.661,16:23:43:624
-0.0019,-0.0319,0.0129,24.4336,2,15.605,16:23:44:624
0.0177,0.0118,0.0329,27.4188,2,15.672,16:23:45:626
2.00E-04,0.0059,0.0505,29,2,15.552,16:23:46:625
-0.0102,-0.0176,-0.0308,29.4182,2,34.171,16:23:47:623
0.0082,-0.0109,-0.0285,29.4272,2,15.63,16:23:48:624
-0.0102,0.0036,0.002,29.5665,2,15.596,16:23:49:624
-0.0255,0.0106,0.0193,29,2,15.689,16:23:50:624
-0.0087,-0.02,-0.0732,29.5686,2,15.532,16:23:51:624
0.0139,0.0084,-0.0535,30,2,15.653,16:23:52:624
-0.0285,0.0214,-0.0122,29.4318,2,15.488,16:23:53:624
-0.0285,0.0119,-0.0161,29,2,38.612,16:23:54:624
0.0223,-0.0104,-0.0012,29.4312,2,15.689,16:23:55:624
-0.0094,0.0298,-0.0501,29.4316,2,15.621,16:23:56:624
0.0211,0.0207,-3.00E-04,29.4309,2,15.596,16:23:57:623
-0.011,5.00E-04,-0.0121,29.5685,2,37.037,16:23:58:624
-0.0125,-0.0363,-0.035,29,2,15.643,16:23:59:624
-0.0057,-0.0093,0.067,29,2,15.63,16:24:00:624
-0.0613,0.0137,-0.0862,29,2,21.753,16:24:01:624
0.0025,0.037,0.0061,29,2,15.605,16:24:02:625
0.0218,-0.0045,-0.0362,28.5688,2,15.69,16:24:03:625
-0.0066,0.0288,0.0406,29,2,15.666,16:24:04:625
-5.00E-04,0.0012,-0.0335,29,2,15.632,16:24:05:624
0.0098,0.0154,-0.0082,28.5749,2,15.843,16:24:06:624
0.0447,-0.0404,0.0326,29,2,15.459,16:24:07:625
3.00E-04,-0.0207,0.0482,29,2,15.608,16:24:08:624
-0.013,0.0018,0.0692,28.5689,2,15.618,16:24:09:624
0.0137,0.0089,-0.0239,28.5701,2,33.85,16:24:10:624
0.0555,0.0138,0.003,29,2,15.544,16:24:11:625
0.0091,-0.0268,-0.072,28.4207,2,25.792,16:24:12:624
0.0094,-0.006,-0.0056,29,2,52.327,16:24:13:624
0.0257,-0.0076,0.0029,29.4314,2,41.136,16:24:14:624
0.0091,0.0384,0.0429,29.5688,2,17.308,16:24:15:624
0.0049,0.0114,0.0029,29.5774,2,15.655,16:24:16:624
-0.017,-0.0032,-0.0202,29.4312,2,43.743,16:24:17:625
0.0102,-0.0258,0.0616,29.4312,2,15.607,16:24:18:624
0.0101,-0.0238,-0.0171,29.5688,2,15.694,16:24:19:623
-0.0071,0.0148,-0.0103,29.431,2,15.564,16:24:20:625
-0.0013,-0.0102,-0.0086,30,2,15.532,16:24:21:624
-3.00E-04,-0.0044,-0.0135,29.4219,2,45.865,16:24:22:624
-0.0249,-0.007,0.0071,29.5664,2,15.499,16:24:23:623
-0.0089,0.0178,-0.0016,29.4244,2,58.032,16:24:24:624
-0.0202,-0.0348,0.0016,29.4163,2,15.652,16:24:25:624
-0.0087,0.0055,6.00E-04,29.5728,2,46.993,16:24:26:627
0.0162,-0.0143,-0.077,29.5794,2,37.595,16:24:27:625
-0.0024,-0.0016,0.0306,29,2,15.665,16:24:28:624
0.0347,-0.0059,-0.0526,29,2,15.617,16:24:29:625
-0.0152,0.0134,0.0222,29,2,45.453,16:24:30:624
-0.0059,0.0181,0.0089,29.4156,2,15.604,16:24:31:623
-0.0132,-0.0059,-0.042,28.5663,2,15.644,16:24:32:624
-0.0124,0.003,-0.0564,28.573,2,47.457,16:24:33:624
-0.0174,-0.0204,-0.0631,28.5673,2,15.63,16:24:34:625
-0.0051,0.032,-0.0311,28.5714,2,15.663,16:24:35:626
-0.011,-0.0107,-0.0174,29,2,56.33,16:24:36:625
-0.002,-0.0021,2.00E-04,29,2,49.248,16:24:37:624
-0.0015,0.0353,0.0394,28.582,2,15.891,16:24:38:624
-0.0184,0.0301,-0.0155,29,2,15.649,16:24:39:626
0.0122,0.0191,-0.0395,28.4338,2,15.529,16:24:40:624
-0.0054,0.0202,0.003,28.5722,2,15.552,16:24:41:624
0.005,0.0275,-0.065,28.5664,2,15.673,16:24:42:624
0.0084,-0.0312,0.0544,29,2,15.634,16:24:43:625
0.0073,-0.0083,-0.0128,29,2,54.097,16:24:44:624
-0.0186,0.0116,-0.0184,29,2,15.555,16:24:45:624
0.0295,0.023,0.0415,28.5665,2,15.511,16:24:46:624
-0.0016,0.0148,0.0203,29,2,15.52,16:24:47:624
-0.0097,0.0082,-0.0573,28.5753,2,15.567,16:24:48:626
-0.0245,0.0067,-0.0139,28.5788,2,45.339,16:24:49:626
-2.00E-04,-0.0278,-0.0021,28.5665,2,32.555,16:24:50:625
0.0225,-0.038,0.0177,28.5768,2,46.189,16:24:51:624
0.007,0.0162,0.0367,28.5805,2,43.014,16:24:52:625
-0.0054,0.0101,0.0092,28.5835,2,45.36,16:24:53:623
-0.0265,5.00E-04,0.0213,29,2,48.718,16:24:54:624
-0.003,-0.0041,-0.0201,29,2,15.472,16:24:55:625
-0.0082,-0.0295,-0.0688,28.5683,2,15.538,16:24:56:625
-0.0066,-3.00E-04,0.037,28.5793,2,15.513,16:24:57:624
0.0209,-0.0317,-0.0068,28.5781,2,17.096,16:24:58:625
-0.0014,-0.0073,0.0202,28.5805,2,52.397,16:24:59:625
-0.0069,0.0028,-0.0507,29,2,15.541,16:25:00:624
-0.0329,0.0016,0.0081,29,2,15.412,16:25:01:625
-0.0115,0.0127,0.0324,28.4273,2,15.596,16:25:02:624
-0.0056,0.0093,-0.0944,28.5702,2,32.952,16:25:03:623
-0.0107,-0.0141,-0.0475,29,2,15.698,16:25:04:624
0.0084,0.0049,0.0185,28.5682,2,15.674,16:25:05:628
0.0087,0.0111,0.0286,28,2,15.606,16:25:06:624
-0.0115,0.0074,-0.0033,28.5819,2,39.588,16:25:07:624
-0.0038,-0.0031,-0.0309,28.5811,2,15.649,16:25:08:624
-0.038,0.0294,-0.0101,29,2,15.668,16:25:09:624
-0.0124,-0.0123,0.0337,28.4331,2,15.743,16:25:10:624
-0.0168,-0.0272,-0.0336,28.4335,2,15.704,16:25:11:624
0.0162,-0.0011,-0.0479,28.417,2,15.59,16:25:12:623
0.0029,0.0173,0.038,29,2,40.159,16:25:13:625
-0.0259,0.0296,-0.0265,29,2,15.681,16:25:14:628
-0.0056,0.0245,-0.1299,29,2,46.175,16:25:15:624
0.0074,0.0038,-0.0446,29,2,15.669,16:25:16:625
-0.0047,0.0025,-0.0184,29,2,15.644,16:25:17:624
-0.0402,0.019,0.0127,29,2,15.681,16:25:18:624
-0.0066,0.0196,-0.0113,29,2,16.461,16:25:19:624
0.0414,-0.0332,-0.0073,26,2,42.544,16:25:20:623
-0.0086,-0.0358,-0.0339,26,2,15.598,16:25:21:625
-0.0194,0.002,0.0503,26,2,17.944,16:25:22:624
-0.0029,-0.0268,-0.015,26,2,61.875,16:25:23:624
0.0136,-0.0206,0.0279,26,2,48.995,16:25:24:626
-0.0109,-0.0337,-0.0712,25.5802,2,15.511,16:25:25:624
0.0017,0.0311,-0.0011,25.5664,2,15.544,16:25:26:624
0.0093,-0.0081,0.0301,25.4198,2,15.525,16:25:27:625
0.0196,-0.011,-0.0131,25.4299,2,15.572,16:25:28:624
0.0119,-0.0151,-0.0061,26.4251,2,15.475,16:25:29:624
-0.0214,0.0294,-0.0731,28.4078,2,15.562,16:25:30:632
0.0026,-0.0099,0.0643,27.5803,2,58.264,16:25:31:624
0.0028,0.0058,0.0161,27.5665,2,37.142,16:25:32:625
-0.0047,0.0133,-0.0378,27.4279,2,15.544,16:25:33:624
0.0305,-0.0142,-0.086,28,2,50.243,16:25:34:626
-0.0301,-0.0314,0.0593,28.5672,2,49.077,16:25:35:624
0.0155,0.0179,0.0438,29,2,43.796,16:25:36:623
0.0135,2.00E-04,-0.0303,29.4341,2,15.479,16:25:37:624
-0.0113,-0.0039,-0.0639,29,2,15.596,16:25:38:624
-0.0102,0.0636,-0.0176,27.5668,2,29.388,16:25:39:624
0.0042,0.0321,-0.0021,27.5669,2,18.821,16:25:40:624
-0.0198,0.0178,-0.0721,27.5669,2,15.576,16:25:41:623
0.0122,-0.0177,0.0664,28.4336,2,15.749,16:25:42:624
0.0141,0.0261,-0.0133,28.5686,2,15.733,16:25:43:625
-0.0053,0.0192,0.0307,28,2,15.57,16:25:44:624
-0.0119,0.0195,0.0127,27.5682,2,15.723,16:25:45:624
-0.0339,-0.0481,0.0074,28,2,15.506,16:25:46:624
0.0061,0.0076,-0.0336,28,2,15.433,16:25:47:624
-0.0033,0.0146,0.0276,27.4316,2,15.484,16:25:48:625
0.0196,0.0056,-0.0047,28,2,15.402,16:25:49:623
0.0104,-0.0065,0.0902,28,2,15.443,16:25:50:624
-0.0099,0.0087,-0.0416,27.5755,2,16.139,16:25:51:624
0.0074,0.0319,-0.0057,27.4317,2,15.513,16:25:52:624
0.0015,0.0476,0.0886,28.5689,2,72.816,16:25:53:624
-0.0063,-0.043,-0.0465,28.5685,2,61.14,16:25:54:624
-0.0154,0.0318,-0.0528,29,2,57.569,16:25:55:624
-0.028,0.0289,0.0079,29.4312,2,16.849,16:25:56:624
0.0464,0.0223,0.0222,29.5686,2,16.862,16:25:57:625
0.0061,0.0299,-0.0426,29.4309,2,58.954,16:25:58:624
0.0285,0.0074,0.0226,29.5686,2,50.076,16:25:59:624
0.0091,-0.0061,-0.0065,29.5687,2,64.703,16:26:00:623
0.0063,0.0155,0.036,29.4281,2,47.534,16:26:01:625
0.0093,-0.0466,-0.033,29.4309,2,56.672,16:26:02:625
0.0068,0.0183,0.0165,29.4316,2,59.098,16:26:03:624
0.0116,-0.0257,0.0475,29.4315,2,30.652,16:26:04:624
-0.0444,-0.1706,-0.0786,29.5686,2,59.081,16:26:05:624
-0.0177,-0.019,-0.0177,29,2,45.218,16:26:06:624
-0.045,-0.025,-0.0414,29.4345,2,19.077,16:26:07:623
-0.0162,-0.0197,-0.0463,30,2,23.577,16:26:08:625
-0.0238,-0.0786,-0.0326,30,2,15.576,16:26:09:624
-0.023,-0.0297,-0.1055,30,2,17.665,16:26:10:624
0.0236,0.0448,0.1027,29.5817,2,15.629,16:26:11:623
-0.0062,-0.0191,0.0217,29.4318,2,15.66,16:26:12:625
-0.0135,-0.0091,-0.0105,30,2,15.578,16:26:13:625
0.0048,-0.0049,0.0281,30,2,15.628,16:26:14:625
-0.0074,0.0044,-0.0699,29.4295,2,15.684,16:26:15:624
-0.0063,-0.0253,-0.0336,29.5678,2,15.472,16:26:16:625
-0.0187,-0.001,-0.0523,30,2,25.537,16:26:17:624
0.0102,-0.0105,-0.0091,29.5662,2,17.021,16:26:18:625
-0.0504,0.0041,0.0047,29.5811,2,15.512,16:26:19:624
-0.003,-0.013,-0.0246,29.5664,2,15.546,16:26:20:626
-0.0196,-0.0387,-0.0245,29.5684,2,15.457,16:26:21:624
-0.0065,-0.0269,0.0449,30,2,15.559,16:26:22:625
0.0077,-0.003,-0.0435,30,2,15.477,16:26:23:624
-0.0045,-0.0076,0.0538,30,2,15.513,16:26:24:625
0.0108,-0.0056,4.00E-04,29.5727,2,29.865,16:26:25:625
-0.0155,-0.1348,-0.0274,29.5805,2,50.019,16:26:26:624
-0.0184,-0.031,-0.1346,28.4274,2,64.956,16:26:27:624
0.0055,0.0166,0.01,28,2,15.458,16:26:28:624
0.0101,-0.0246,0.0681,27.5734,2,29.003,16:26:29:625
0.0114,0.0151,-0.0448,27.5725,2,15.536,16:26:30:625
0.0204,-0.0103,0.0195,27.5725,2,15.736,16:26:31:624
0.0026,-0.0086,0.0193,27,2,15.405,16:26:32:624
-0.0028,0.0318,-0.0415,27,2,34.672,16:26:33:625
-0.032,0.017,0.0091,27,2,15.59,16:26:34:625
-0.0335,-0.0167,0.0474,27.4338,2,53.841,16:26:35:624
-0.0017,0.0018,-0.0178,28.4194,2,36.625,16:26:36:624
0.0166,-0.0184,-0.0545,28.5839,2,20.892,16:26:37:624
0.0052,0.029,0.0228,29,2,15.627,16:26:38:623
-0.0059,-0.0211,0.0018,29,2,15.565,16:26:39:624
0.0208,-0.0096,-0.0266,29,2,15.649,16:26:40:624
-0.0248,-0.0256,-0.0224,29,2,15.403,16:26:41:624
0.0132,-0.0176,0.0167,29,2,15.654,16:26:42:623
-0.0263,-0.0227,-0.0743,29,2,15.557,16:26:43:626
0.0088,0.0085,0.017,28.5721,2,15.787,16:26:44:623
0.0206,-0.0045,0.0021,29,2,15.735,16:26:45:624
-0.0218,0.005,0.0456,28.4332,2,15.617,16:26:46:624
5.00E-04,-0.0266,-0.0374,29,2,15.571,16:26:47:624
-0.0218,0.0149,0.0294,29,2,15.608,16:26:48:625
0.0021,-0.0043,0.0307,29,2,15.563,16:26:49:624
0.0166,0.0172,-0.0312,28.4311,2,15.453,16:26:50:624
0.0224,0.0301,-0.002,29,2,49.289,16:26:51:624
0.0027,-0.0392,0.0678,29.5681,2,65.902,16:26:52:625
0.567,0.039,-0.0806,28.4329,2,47.724,16:26:53:624
-1.0268,-0.0143,0.2477,43.6017,2,37.194,16:26:54:624
-0.0481,0.0502,-0.0653,46.434,2,30.884,16:26:55:623
-0.0249,-0.0041,0.0228,46.8597,2,15.715,16:26:56:624
-0.0038,0.005,-0.0245,47.5656,2,15.58,16:26:57:624
-0.0176,0.0144,-0.0515,46.134,2,22.272,16:26:58:624
-0.0261,0.0018,0.0396,45.8648,2,33.72,16:26:59:623
-0.0326,-0.0353,-0.0893,46.1346,2,15.505,16:27:00:624
0.0028,-0.0188,-0.0266,46.5662,2,32.016,16:27:01:624
-0.0258,-0.0455,-0.0352,46.432,2,32.49,16:27:02:624
-0.0018,0.0127,0.0432,46.4329,2,40.915,16:27:03:624
