LINEAR ACCELERATION X,LINEAR ACCELERATION Y,LINEAR ACCELERATION Z,LIGHT (lux),PROXIMITY (m),ATMOSPHERIC PRESSURE (hPa),TEMPERATURE (C),SOUND LEVEL (dB),Time since start in ms ,YYYY-MO-DD HH-MI-SS_SSS
-0.0168,-0.0555,-0.0595,43.86,5,1014.56,39.4,38.381,29,16:53:28:021
0.0167,-0.0492,-0.0045,43.86,5,1014.55,39.4,41.115,1029,16:53:29:021
0.0029,-0.0413,0.0529,43.86,5,1014.52,39.4,36.282,2028,16:53:30:020
0.0321,-0.0296,-0.0065,43.86,5,1014.53,39.4,36.607,3029,16:53:31:021
0.0303,-0.0316,-0.0593,43.86,5,1014.5,39.4,36.492,4029,16:53:32:021
0.0496,0.045,-0.0443,43.86,5,1014.5,39.4,36.204,5029,16:53:33:021
0.0383,-0.0164,-0.0318,43.86,5,1014.53,39.4,36.254,6029,16:53:34:021
-0.0048,0.0167,0.0364,43.86,5,1014.51,39.4,36.935,7029,16:53:35:021
0.0152,0.0124,0.0203,43.86,5,1014.54,39.4,35.759,8029,16:53:36:021
0.0613,0.0062,0.027,43.86,5,1014.53,39.5,37.916,9028,16:53:37:020
-0.0035,0.0171,0.0577,43.86,5,1014.54,39.5,37.973,10029,16:53:38:021
0.0088,-0.0312,0.0634,43.86,5,1014.47,39.5,36.632,11029,16:53:39:021
-0.0011,0.0222,0.0016,43.86,5,1014.42,39.5,36.173,12028,16:53:40:020
-0.0222,-0.0105,0.0015,43.86,5,1014.43,39.5,36.133,13029,16:53:41:021
0.0223,0.012,0.0165,43.86,5,1014.4,39.5,36.423,14029,16:53:42:021
0.0264,0.0035,0.0358,43.86,5,1014.39,39.5,35.802,15029,16:53:43:021
-0.0221,-0.0662,-0.0195,43.86,5,1014.31,39.5,35.162,16029,16:53:44:021
0.0173,-0.0311,-0.0315,43.86,5,1014.35,39.5,35.696,17029,16:53:45:021
-0.0228,-0.0442,-0.0553,43.86,5,1014.37,39.5,37.837,18029,16:53:46:021
0.0477,-0.0546,-0.0138,43.86,5,1014.34,39.5,36.268,19029,16:53:47:021
-7.00E-04,0.0244,0.0576,43.86,5,1014.29,39.5,41.678,20029,16:53:48:021
-0.0537,-0.0501,0.0122,43.86,5,1014.31,39.5,42.525,21028,16:53:49:020
-0.0306,0.049,-0.0297,43.86,5,1014.31,39.5,40.372,22029,16:53:50:021
-0.0114,0.0093,0.0198,43.86,5,1014.31,39.5,40.391,23029,16:53:51:021
-0.008,-0.0074,0.054,43.86,5,1014.3,39.5,39.485,24029,16:53:52:021
-6.00E-04,0.0286,-0.0105,43.86,5,1014.27,39.5,45.49,25029,16:53:53:021
-0.0067,-0.013,-0.0956,43.86,5,1014.28,39.5,35.416,26029,16:53:54:021
0.0447,0.0753,5.00E-04,43.86,5,1014.31,39.5,39.702,27029,16:53:55:021
-0.0408,0.0061,-0.0787,43.86,5,1014.32,39.6,55.954,28029,16:53:56:021
0.0244,-0.0414,-0.0415,43.86,5,1014.3,39.6,36.067,29029,16:53:57:021
0.0118,5.00E-04,-0.0801,43.86,5,1014.25,39.6,35.563,30029,16:53:58:021
0.0159,6.00E-04,0.0139,43.86,5,1014.22,39.6,36.803,31029,16:53:59:021
-0.0238,0.036,-0.0223,43.86,5,1014.24,39.6,35.594,32029,16:54:00:021
0.0052,-0.0066,0.0217,43.86,5,1014.3,39.6,35.765,33029,16:54:01:021
0.003,-0.0128,2.00E-04,43.86,5,1014.23,39.6,34.882,34030,16:54:02:022
0.0376,0.001,-0.0266,43.86,5,1014.21,39.6,36.059,35029,16:54:03:021
-0.0368,-0.0127,-0.0323,43.86,5,1014.26,39.6,35.172,36029,16:54:04:021
-0.0221,0.0338,-0.0784,43.86,5,1014.26,39.6,34.324,37029,16:54:05:021
0.0268,0.0015,-0.0139,43.86,5,1014.32,39.6,35.036,38029,16:54:06:021
-0.0254,-0.0051,-0.0647,43.86,5,1014.34,39.6,33.766,39029,16:54:07:021
-0.0051,-0.0261,0.0236,43.86,5,1014.37,39.6,33.215,40029,16:54:08:021
-0.0728,-0.0325,0.0132,43.86,5,1014.27,39.6,35.156,41029,16:54:09:021
0.0579,0.0152,0.0528,43.86,5,1014.24,39.6,35.406,42030,16:54:10:022
-0.037,-0.0072,0.072,43.86,5,1014.29,39.6,34.054,43029,16:54:11:021
-0.0243,0.0131,-0.0915,43.86,5,1014.29,39.6,33.912,44029,16:54:12:021
-0.0436,-0.0019,-0.051,43.86,5,1014.27,39.6,35.125,45030,16:54:13:022
0.005,0.0113,-0.0331,43.86,5,1014.25,39.6,34.212,46029,16:54:14:021
-0.0087,-0.0044,-0.0142,43.86,5,1014.28,39.6,34.6,47029,16:54:15:021
0.0296,-0.0069,-0.0457,43.86,5,1014.33,39.6,34.032,48029,16:54:16:021
0.0055,0.0225,0.0183,43.86,5,1014.15,39.6,35.019,49029,16:54:17:021
0.007,-0.0085,-0.0447,43.86,5,1014.18,39.6,35.189,50029,16:54:18:021
-0.0031,-0.03,-1.00E-04,43.86,5,1014.19,39.6,37.613,51029,16:54:19:021
-0.0447,0.0046,-0.0704,43.86,5,1014.19,39.6,35.489,52029,16:54:20:021
-0.0253,0.0029,0.0455,43.86,5,1014.17,39.6,36.75,53029,16:54:21:021
0.0237,0.0068,-0.0325,43.86,5,1014.23,39.7,36.434,54029,16:54:22:021
-0.0069,0.018,0.0086,43.86,5,1014.26,39.7,33.285,55030,16:54:23:022
0.016,0.0028,0.0509,43.86,5,1014.29,39.7,36.885,56029,16:54:24:021
-0.0195,-0.0455,-0.0529,43.86,5,1014.31,39.7,35.614,57029,16:54:25:021
0.0538,-0.0146,-0.0424,43.86,5,1014.25,39.7,33.553,58029,16:54:26:021
0.0186,0.0146,-0.0061,43.86,5,1014.22,39.7,44.495,59029,16:54:27:021
0.0148,-0.0134,-0.0463,43.86,5,1014.22,39.7,41.21,60029,16:54:28:021
0.0396,0.0424,-0.0285,43.86,5,1014.21,39.7,38.405,61029,16:54:29:021
-0.0201,0.0105,-0.0315,43.86,5,1014.14,39.7,39.032,62029,16:54:30:021
0.0185,0.0161,-0.0197,43.86,5,1014.2,39.7,41.376,63029,16:54:31:021
-0.0028,0.0098,-0.0484,45.84,5,1014.39,39.7,40.251,64030,16:54:32:022
0.0075,0.0564,0.0195,45.84,5,1014.45,39.7,36.322,65029,16:54:33:021
0.0096,-0.0162,-0.0081,45.84,5,1014.36,39.7,34.077,66029,16:54:34:021
0.0124,-0.0081,-0.054,45.84,5,1014.17,39.7,35.611,67029,16:54:35:021
-0.0016,0.0189,-0.0428,45.84,5,1014.01,39.7,35.217,68029,16:54:36:021
-0.0913,0.0129,0.0283,45.84,5,1013.86,39.7,35.685,69029,16:54:37:021
0.0159,-0.0181,-0.0795,45.84,5,1013.82,39.7,36.838,70029,16:54:38:021
0.0811,-0.0456,-0.03,45.84,5,1013.73,39.6,41.793,71029,16:54:39:021
0.0129,0.0193,0.0319,45.84,5,1013.63,39.6,39.356,72029,16:54:40:021
-0.0092,-0.0306,0.0058,45.84,5,1013.62,39.6,44.846,73029,16:54:41:021
-0.0687,-0.0125,-0.0236,45.84,5,1013.57,39.6,56.506,74029,16:54:42:021
-0.0514,2.00E-04,-0.024,45.84,5,1013.49,39.6,52.759,75029,16:54:43:021
-0.0237,-0.0201,0.0232,45.84,5,1013.44,39.5,44.865,76029,16:54:44:021
-0.0427,-0.0051,-0.0112,45.84,5,1013.43,39.5,44.443,77029,16:54:45:021
0.0178,-0.0141,0.0252,45.84,5,1013.49,39.5,48.35,78029,16:54:46:021
-0.0428,0.0224,0.0717,45.84,5,1013.54,39.4,50.522,79029,16:54:47:021
-0.0115,-0.0064,-0.0466,45.84,5,1013.45,39.4,53.62,80029,16:54:48:021
-0.0016,0.0123,-0.0212,45.84,5,1013.52,39.4,56.22,81029,16:54:49:021
0.0238,0.0081,-0.0374,45.84,5,1013.53,39.3,53.111,82029,16:54:50:021
0.0037,-0.0112,-0.0081,45.84,5,1013.53,39.3,39.591,83029,16:54:51:021
0.0127,0.0526,-0.024,45.84,5,1013.58,39.3,37.792,84029,16:54:52:021
-0.0496,0.0322,0.0407,45.84,5,1013.83,39.3,39.452,85029,16:54:53:021
-0.0647,-0.0418,0.0087,45.84,5,1013.82,39.2,42.132,86029,16:54:54:021
-0.012,-0.0201,0.0701,45.84,5,1013.81,39.2,47.536,87029,16:54:55:021
-0.0195,-0.0116,0.0056,45.84,5,1013.85,39.2,55.398,88029,16:54:56:021
-0.0673,-0.0086,0.0879,45.84,5,1013.74,39.2,55.921,89029,16:54:57:021
0.0216,0.0471,-0.0085,45.84,5,1013.78,39.2,54.16,90029,16:54:58:021
-0.0106,-0.0074,-0.0245,45.84,5,1013.62,39.2,51.59,91029,16:54:59:021
0.0074,0.0199,-0.0137,45.84,5,1013.38,39.1,51.3,92029,16:55:00:021
-0.0043,0.0258,0.052,45.84,5,1013.5,39.1,51.911,93029,16:55:01:021
-0.0151,0.0233,-0.0098,45.84,5,1013.61,39.1,49.348,94029,16:55:02:021
0.027,-0.0017,-0.0254,45.84,5,1013.68,39,49.44,95029,16:55:03:021
0.0376,-0.0175,-0.0056,45.84,5,1013.8,39,47.499,96029,16:55:04:021
0.0352,0.0307,-0.0135,45.84,5,1013.86,39,49.906,97029,16:55:05:021
-0.023,-0.0038,-0.049,45.84,5,1013.94,39,50.85,98029,16:55:06:021
-0.0256,-0.0011,-0.0242,45.84,5,1013.94,39,49.941,99029,16:55:07:021
0.033,0.0221,0.0446,45.84,5,1014,39,51.12,100029,16:55:08:021
0.0262,0.0563,0.0158,45.84,5,1013.99,39,56.195,101029,16:55:09:021
-0.0171,-0.0172,-0.043,45.84,5,1013.99,39,55.327,102030,16:55:10:022
-0.013,-0.018,-0.0191,45.84,5,1013.99,38.9,50.458,103029,16:55:11:021
0.0042,0.0298,0.0339,45.84,5,1013.93,38.9,56.027,104029,16:55:12:021
-0.0223,-0.0233,-0.0084,45.84,5,1013.91,38.9,53.348,105029,16:55:13:021
-0.0114,0.0081,-0.0877,45.84,5,1013.96,38.9,56.882,106029,16:55:14:021
-0.0123,-0.0452,-0.0098,45.84,5,1013.88,38.9,51.231,107029,16:55:15:021
0.0018,-0.0215,-0.006,45.84,5,1013.91,38.9,54.645,108029,16:55:16:021
-0.0315,0.0331,0.0462,45.84,5,1014.02,38.9,52.138,109029,16:55:17:021
-0.0021,0.0594,-0.0341,45.84,5,1014.07,38.9,50.603,110029,16:55:18:021
0.0022,0.0161,-0.0072,45.84,5,1014.08,38.8,54.294,111029,16:55:19:021
-0.0222,-0.0163,-0.0099,45.84,5,1014.02,38.8,53.789,112030,16:55:20:022
0.0349,-0.0353,-0.0326,45.84,5,1014.02,38.8,53.512,113029,16:55:21:021
0.0074,-0.0361,-0.0046,45.84,5,1014.05,38.8,55.907,114029,16:55:22:021
0.0228,0.036,-0.0599,45.84,5,1014,38.8,41.595,115030,16:55:23:022
0.0117,0.0046,0.0071,45.84,5,1014.03,38.8,35.881,116029,16:55:24:021
-6.00E-04,0.0112,0.0772,45.84,5,1014.06,38.8,36.926,117029,16:55:25:021
-0.0149,0.0332,-0.0524,45.84,5,1014.02,38.8,35.452,118029,16:55:26:021
-0.0494,0.0131,0.0367,45.84,5,1014.02,38.8,52.597,119030,16:55:27:022
-0.0079,-0.0172,-0.0551,45.84,5,1014,38.8,60.599,120029,16:55:28:021
0.0046,-0.0376,-0.0124,45.84,5,1013.96,38.8,57.671,121029,16:55:29:021
0.0146,-0.0602,0.0595,45.84,5,1014.01,38.8,49.261,122029,16:55:30:021
0.0172,-0.0144,-0.0856,45.84,5,1013.98,38.8,52.648,123029,16:55:31:021
-0.0247,0.0037,4.00E-04,45.84,5,1014.03,38.8,50.917,124029,16:55:32:021
0.0522,-0.0308,-0.0403,45.84,5,1014.09,38.7,47.909,125029,16:55:33:021
-0.0421,-0.0273,-0.0829,45.84,5,1014.11,38.7,48.819,126030,16:55:34:022
-0.0223,-0.0243,-0.0482,45.84,5,1014.09,38.7,45.433,127029,16:55:35:021
0.0313,0.0443,-0.0204,45.84,5,1014.12,38.7,44.042,128029,16:55:36:021
-0.0164,0.0227,0.0056,45.84,5,1014.16,38.7,45.053,129029,16:55:37:021
-0.045,-0.0322,0.0508,45.84,5,1014.15,38.7,48.488,130029,16:55:38:021
0.0243,-0.0096,-0.0131,45.84,5,1014.19,38.7,41.794,131029,16:55:39:021
0.0139,0.0137,0.0214,45.84,5,1014.14,38.7,40.993,132029,16:55:40:021
-0.0064,0.0038,0.0496,45.84,5,1014.21,38.7,42.048,133029,16:55:41:021
-0.0505,-0.0083,-0.0184,45.84,5,1014.18,38.7,40.909,134029,16:55:42:021
-0.025,0.0236,-0.0177,45.84,5,1014.19,38.7,39.987,135029,16:55:43:021
-0.0011,-0.0449,0.0019,45.84,5,1014.12,38.7,48.002,136029,16:55:44:021
-0.0591,-0.003,-0.0167,45.84,5,1014.09,38.7,45.614,137029,16:55:45:021
-0.0078,0.0041,0.0674,45.84,5,1014.07,38.7,38.63,138029,16:55:46:021
0.0039,0.0329,-0.0176,45.84,5,1013.99,38.7,47.536,139029,16:55:47:021
0.0181,0.0236,0.0345,45.84,5,1013.89,38.7,39.059,140029,16:55:48:021
-0.0063,-0.0149,0.0478,45.84,5,1013.98,38.7,46.15,141029,16:55:49:021
0.0179,-0.0066,0.0941,45.84,5,1013.87,38.7,43.151,142029,16:55:50:021
-0.0188,0.0502,-0.06,45.84,5,1013.77,38.6,49.671,143029,16:55:51:021
0.0067,0.0156,-0.0054,45.84,5,1013.66,38.6,45.677,144029,16:55:52:021
0.0416,-0.0417,-0.0101,45.84,5,1013.52,38.6,43.463,145029,16:55:53:021
-0.0431,0.0044,0.0775,45.84,5,1013.38,38.5,43.609,146029,16:55:54:021
-0.0324,0.0157,-0.0051,45.84,5,1013.34,38.5,37.689,147029,16:55:55:021
0.013,-0.0259,0.0251,45.84,5,1013.44,38.4,42.304,148029,16:55:56:021
0.0202,0.0309,0.0227,45.84,5,1013.37,38.4,42.625,149029,16:55:57:021
-0.001,-0.0043,-0.0357,45.84,5,1013.32,38.4,49.131,150029,16:55:58:021
-0.0206,-0.0277,0.0157,45.84,5,1013.33,38.3,41.817,151029,16:55:59:021
-0.0083,0.0314,-0.0352,45.84,5,1013.28,38.2,43.491,152029,16:56:00:021
0.0049,0.0157,0.008,45.84,5,1013.22,38.2,36.045,153037,16:56:01:029
-0.0603,0.0377,-0.0113,45.84,5,1013.27,38.1,45.489,154029,16:56:02:021
-0.0257,-0.061,-0.0354,45.84,5,1013.31,38.1,46.256,155029,16:56:03:021
-0.0205,-0.018,-0.0151,45.84,5,1013.68,38.1,38.464,156029,16:56:04:021
-0.0153,0.0109,-0.0146,45.84,5,1013.71,38.1,45.222,157029,16:56:05:021
-0.0072,-0.0069,-0.0443,45.84,5,1013.5,38.1,35.21,158029,16:56:06:021
-0.0167,-0.0458,-0.0303,45.84,5,1013.37,38,44.842,159030,16:56:07:022
0.0749,0.0059,0.0678,45.84,5,1013.18,37.9,39.723,160029,16:56:08:021
0.0313,-0.0223,0.0459,45.84,5,1013.1,37.9,36.167,161029,16:56:09:021
0.006,-0.0263,-0.0097,45.84,5,1013.03,37.8,46.036,162029,16:56:10:021
-0.0048,0.0536,-0.0632,45.84,5,1012.98,37.7,34.972,163030,16:56:11:022
0.0284,0.0254,-0.0101,45.84,5,1012.97,37.7,34.597,164029,16:56:12:021
0.0314,0.0323,-0.0484,45.84,5,1012.97,37.6,39.937,165029,16:56:13:021
0.0359,-9.00E-04,-0.0199,46.12,5,1013.24,37.5,42.457,166029,16:56:14:021
-0.0367,0.0713,-0.0952,46.12,5,1013.37,37.5,43.031,167029,16:56:15:021
0.0466,-0.0115,0.0389,46.12,5,1013.51,37.4,35.484,168029,16:56:16:021
0.0608,-0.0162,0.0199,46.12,5,1013.35,37.4,40.499,169029,16:56:17:021
0.0164,-0.0092,0.0731,46.12,5,1013.18,37.4,41.438,170029,16:56:18:021
-0.078,-0.0231,0.0097,46.12,5,1013.09,37.3,41.957,171029,16:56:19:021
-0.0204,-0.0056,-0.0387,46.12,5,1013.04,37.2,34.624,172029,16:56:20:021
0.0064,0.0147,0.0196,46.12,5,1013,37.2,42.502,173029,16:56:21:021
0.0569,0.0369,0.0065,46.12,5,1012.97,37.1,46.098,174029,16:56:22:021
0.0438,-0.0131,-0.0241,46.12,5,1012.97,37,41.303,175030,16:56:23:022
8.00E-04,-0.0025,-0.0493,46.12,5,1012.98,37,57.131,176029,16:56:24:021
0.0345,0.0226,0.0021,46.12,5,1012.99,36.9,47.97,177030,16:56:25:022
0.0088,0.0106,-0.0764,46.12,5,1012.99,36.8,42.113,178029,16:56:26:021
-0.019,-0.0044,0.1036,46.12,5,1013.03,36.8,54.823,179030,16:56:27:022
-0.0177,0.025,0.012,46.12,5,1013.07,36.7,53.324,180030,16:56:28:022
-0.0211,-0.0443,-0.0108,46.12,5,1013.09,36.7,45.103,181030,16:56:29:022
0.014,0.0748,0.0122,46.12,5,1013.1,36.6,49.686,182030,16:56:30:022
0.0199,0.0177,0.0417,46.12,5,1013.18,36.6,50.611,183029,16:56:31:021
0.0468,-0.0209,-0.0719,46.12,5,1013.23,36.5,60.488,184029,16:56:32:021
0.0103,0.0199,-0.0308,46.12,5,1013.24,36.4,45.758,185030,16:56:33:022
0.0347,0.0664,0.0028,46.12,5,1013.28,36.4,47.83,186029,16:56:34:021
0.0298,-0.0533,0.0115,46.12,5,1013.27,36.4,56.752,187029,16:56:35:021
0.0427,-0.0057,-0.0211,46.12,5,1013.36,36.3,40.374,188029,16:56:36:021
-0.0315,0.0479,0.0866,46.12,5,1013.36,36.3,46.2,189029,16:56:37:021
0.0407,0.0498,0.0149,46.12,5,1013.4,36.2,42.248,190030,16:56:38:022
0.0211,0.0117,-0.0523,46.12,5,1013.4,36.2,38.586,191029,16:56:39:021
-0.0026,0.008,-0.0227,46.12,5,1013.42,36.1,45.385,192030,16:56:40:022
0.0709,0.1119,-0.026,46.12,5,1013.42,36.1,34.599,193030,16:56:41:022
0.0074,0.041,-0.0027,46.12,5,1013.48,36.1,65.464,194029,16:56:42:021
-0.036,0.0157,0.04,46.12,5,1013.5,36,51.74,195029,16:56:43:021
-0.0515,0.0119,0.0985,46.12,5,1013.49,36,57.788,196029,16:56:44:021
0.024,0.0273,0.0233,46.12,5,1013.47,35.9,55.264,197030,16:56:45:022
0.0015,-0.0538,0.0065,46.12,5,1013.47,35.9,50.184,198029,16:56:46:021
0.0021,-0.0369,-0.0514,46.12,5,1013.48,35.9,34.681,199029,16:56:47:021
0.0283,0.0123,-0.0341,46.12,5,1013.5,35.8,35.067,200029,16:56:48:021
0.0326,0.0268,0.0691,46.12,5,1013.5,35.8,34.931,201029,16:56:49:021
0.0338,0.0203,-0.0012,46.12,5,1013.52,35.8,33.401,202030,16:56:50:022
-0.0434,0.0071,0.0233,46.12,5,1013.52,35.7,33.533,203029,16:56:51:021
0.0159,0.0047,-0.0343,46.12,5,1013.56,35.7,33.533,204029,16:56:52:021
0.0217,-0.0507,0.0508,46.12,5,1013.57,35.7,35.806,205029,16:56:53:021
0.0055,-0.0092,0.0137,46.12,5,1013.58,35.6,35.295,206029,16:56:54:021
0.0053,0.0146,-0.0431,46.12,5,1013.59,35.6,32.617,207029,16:56:55:021
0.0131,0.0136,0.0173,46.12,5,1013.68,35.6,33.349,208030,16:56:56:022
0.0193,0.0179,0.056,46.12,5,1013.69,35.5,33.11,209029,16:56:57:021
-0.0426,0.0213,0.0639,46.12,5,1013.69,35.5,33.343,210030,16:56:58:022
0.0349,0.0033,0.0513,46.12,5,1013.69,35.5,33.233,211030,16:56:59:022
-0.03,-0.0515,0.0295,46.12,5,1013.7,35.5,32.896,212029,16:57:00:021
0.0307,0.053,-0.0019,46.12,5,1013.75,35.4,33.349,213030,16:57:01:022
0.0082,-0.0082,-0.0516,46.12,5,1013.76,35.4,34.295,214029,16:57:02:021
-0.0143,0.0332,-0.0626,46.12,5,1013.76,35.4,34.053,215029,16:57:03:021
0.0151,0.0034,-0.0289,46.12,5,1013.76,35.3,34.086,216029,16:57:04:021
0.0148,-0.0055,0.0602,46.12,5,1013.87,35.3,34.332,217029,16:57:05:021
0.0046,-0.0428,-0.1216,46.12,5,1014.27,35.3,34.65,218029,16:57:06:021
0.0147,0.0402,0.0193,46.12,5,1014.54,35.3,34.388,219029,16:57:07:021
0.0268,0.0397,-1.00E-04,46.12,5,1014.46,35.4,34.904,220029,16:57:08:021
0.0059,-0.0487,0.0202,46.12,5,1014.49,35.4,35.255,221029,16:57:09:021
0.0163,-0.0171,-0.0014,46.12,5,1014.42,35.4,35.285,222030,16:57:10:022
0.0163,0.0059,-0.0763,46.12,5,1014.24,35.4,35.197,223029,16:57:11:021
-0.0165,-8.00E-04,0.0303,46.12,5,1014.06,35.4,34.924,224029,16:57:12:021
0.0044,0.0324,3.00E-04,46.12,5,1013.94,35.4,35.479,225029,16:57:13:021
0.0502,-0.0546,-0.027,46.12,5,1013.86,35.4,34.732,226029,16:57:14:021
0.0814,-0.0361,-0.0184,46.12,5,1013.9,35.3,36.261,227029,16:57:15:021
0.0693,0.0267,-0.0191,46.12,5,1013.8,35.3,36.528,228029,16:57:16:021
-0.0489,0.0367,0.0274,46.12,5,1013.79,35.3,36.206,229029,16:57:17:021
0.0263,-0.0611,-0.0126,46.12,5,1013.75,35.3,35.616,230029,16:57:18:021
0.0428,0.0366,0.0278,46.12,5,1013.76,35.2,37.146,231030,16:57:19:022
-0.0616,0.0033,-0.0052,46.12,5,1013.73,35.2,36.893,232029,16:57:20:021
0.0051,0.0194,0.0361,46.12,5,1013.74,35.2,35.373,233029,16:57:21:021
-0.0629,-0.0644,-0.031,46.12,5,1013.74,35.1,35.913,234029,16:57:22:021
0.0574,-0.0384,-0.0205,46.12,5,1013.72,35.1,34.665,235029,16:57:23:021
-0.0299,0.0106,-0.0634,46.12,5,1013.7,35.1,34.966,236030,16:57:24:022
0.022,-0.05,0.0125,46.12,5,1013.72,35,35.078,237030,16:57:25:022
-0.0568,-0.0089,-0.0575,46.12,5,1013.72,35,33.386,238029,16:57:26:021
-0.0091,0.0315,-0.0783,46.12,5,1013.72,35,35.244,239029,16:57:27:021
0.0171,0.028,-0.0489,46.12,5,1013.72,34.9,35.06,240029,16:57:28:021
-0.039,0.0028,-0.0341,46.12,5,1013.75,34.9,35.604,241029,16:57:29:021
0.0278,-0.0488,0.0019,46.12,5,1013.74,34.9,34.316,242030,16:57:30:022
-0.0121,-0.0226,0.0343,46.12,5,1013.78,34.9,33.766,243029,16:57:31:021
0.0058,9.00E-04,0.0185,46.12,5,1013.82,34.8,33.275,244030,16:57:32:022
-0.0165,0.055,0.0165,46.12,5,1013.82,34.8,34.229,245029,16:57:33:021
-0.002,0.067,0.1032,46.12,5,1013.83,34.8,36.6,246030,16:57:34:022
0.0098,-0.0107,-0.0524,46.12,5,1013.84,34.8,34.211,247029,16:57:35:021
-0.0506,0.0073,-0.0185,46.12,5,1013.87,34.7,49.456,248030,16:57:36:022
0.012,0.0349,-0.0362,46.12,5,1013.88,34.7,48.939,249030,16:57:37:022
-0.0187,0.0012,0.0064,46.12,5,1013.89,34.7,42.906,250029,16:57:38:021
0.0189,0.0278,0.0566,46.12,5,1013.86,34.7,45.126,251030,16:57:39:022
-0.0349,-0.0046,0.0615,46.12,5,1013.87,34.7,48.76,252029,16:57:40:021
-0.0157,0.0208,-0.0459,46.12,5,1013.84,34.6,50.235,253030,16:57:41:022
-0.05,0.0371,0.0021,46.12,5,1013.85,34.6,48.485,254030,16:57:42:022
-0.0102,-0.0075,-0.0123,46.12,5,1013.83,34.6,50.872,255029,16:57:43:021
0.0076,-0.0645,-0.0124,46.12,5,1013.87,34.6,48.855,256029,16:57:44:021
-0.0426,-0.0173,0.05,46.12,5,1013.91,34.5,42.793,257029,16:57:45:021
-0.0076,-0.0353,-0.057,46.12,5,1013.91,34.5,44.434,258030,16:57:46:022
0.0106,-0.0137,-0.0289,46.12,5,1013.93,34.5,46.202,259029,16:57:47:021
0.0177,0.0146,0.0036,46.12,5,1014.19,34.5,48.832,260029,16:57:48:021
0.0118,-0.0375,-0.0146,46.12,5,1014.55,34.5,44.923,261029,16:57:49:021
0.04,0.0374,-0.0012,46.12,5,1014.42,34.6,48.364,262029,16:57:50:021
0.0032,-0.0266,0.0461,46.12,5,1014.27,34.6,54.369,263029,16:57:51:021
-0.0025,0.051,0.0132,46.12,5,1014.14,34.5,52.253,264029,16:57:52:021
-0.0236,-0.0144,0.0374,46.12,5,1014.06,34.5,54.726,265030,16:57:53:022
0.0011,0.0042,-0.0861,46.12,5,1014,34.5,53.687,266029,16:57:54:021
-0.0052,0.0092,0.0854,46.12,5,1013.97,34.5,53.433,267030,16:57:55:022
-0.0107,0.0029,-0.0264,46.12,5,1013.97,34.5,48.599,268029,16:57:56:021
-0.0299,0.0011,0.0205,46.12,5,1013.91,34.5,50.275,269029,16:57:57:021
-0.0296,-0.0056,0.0044,46.12,5,1013.87,34.4,49.343,270029,16:57:58:021
-0.0155,-0.0039,-0.0117,46.12,5,1013.86,34.4,51.361,271029,16:57:59:021
0.0196,-0.018,0.003,46.12,5,1013.91,34.4,53.486,272029,16:58:00:021
-0.059,0.0244,0.1098,46.12,5,1013.95,34.4,54.191,273030,16:58:01:022
0.0497,-0.0083,0.0533,46.12,5,1013.94,34.4,55,274030,16:58:02:022
-0.0045,-0.0179,-0.0358,46.12,5,1013.89,34.3,55.479,275031,16:58:03:023
-0.0155,-0.0259,-0.0289,46.12,5,1013.88,34.3,52.659,276029,16:58:04:021
0.0087,-0.0081,0.0168,46.12,5,1013.88,34.3,55.408,277029,16:58:05:021
0.0766,0.072,-0.0368,46.12,5,1013.88,34.3,55.581,278029,16:58:06:021
-0.0122,0.0371,-0.0186,46.12,5,1013.9,34.2,54.431,279029,16:58:07:021
-0.009,0.0164,-0.01,46.12,5,1013.92,34.2,52.903,280029,16:58:08:021
-0.0236,-0.033,-0.0858,46.12,5,1013.91,34.2,54.232,281030,16:58:09:022
0.0136,-0.0394,0.0413,46.12,5,1013.93,34.2,49.168,282030,16:58:10:022
-0.0587,0.0708,-0.0404,46.12,5,1013.93,34.2,55.86,283029,16:58:11:021
-0.0207,-0.0145,-0.0716,46.12,5,1013.95,34.1,55.772,284029,16:58:12:021
0.0198,-0.0301,0.0133,46.12,5,1013.94,34.1,57.473,285030,16:58:13:022
0.0597,-0.0159,0.0103,46.12,5,1013.94,34.1,49.143,286029,16:58:14:021
-5.00E-04,0.0199,0.0621,46.12,5,1013.98,34.1,54.046,287029,16:58:15:021
-0.0124,-0.0067,-0.0347,46.12,5,1013.97,34.1,54.397,288030,16:58:16:022
-0.0137,0.0116,-5.00E-04,46.12,5,1013.97,34.1,58.16,289029,16:58:17:021
0.0225,-0.032,-0.0445,46.12,5,1013.96,34,49.718,290029,16:58:18:021
-0.0456,0.0031,-0.0317,46.12,5,1013.93,34,56.127,291029,16:58:19:021
0.0121,-0.0241,0.017,46.12,5,1013.93,34,54.149,292029,16:58:20:021
-0.036,-0.0253,-0.0612,46.12,5,1013.93,34,54.554,293029,16:58:21:021
0.0206,0.0113,-0.015,46.12,5,1013.94,33.9,51.233,294029,16:58:22:021
0.0097,-0.0085,0.0138,46.12,5,1013.94,33.9,54.892,295030,16:58:23:022
-0.0155,-0.031,0.0329,46.12,5,1013.93,33.9,54.123,296029,16:58:24:021
-0.0461,0.0339,-0.0057,46.12,5,1013.95,33.9,55.847,297029,16:58:25:021
-0.0081,-0.0138,0.0208,46.12,5,1013.96,33.9,49.281,298029,16:58:26:021
0.008,-0.0127,0.011,46.12,5,1013.97,33.9,52.607,299029,16:58:27:021
0.0397,0.005,0.0309,46.12,5,1013.95,33.8,49.128,300029,16:58:28:021
0.0098,0.0236,0.0294,46.12,5,1013.96,33.8,50.066,301029,16:58:29:021
0.0175,0.0241,0.0412,46.12,5,1014.01,33.8,51.987,302029,16:58:30:021
0.0213,-0.004,0.0078,46.12,5,1014.01,33.8,53.418,303029,16:58:31:021
-0.0262,0.0302,0.0121,46.12,5,1013.98,33.8,53.739,304029,16:58:32:021
0.0425,0.0835,-0.0168,46.12,5,1013.99,33.8,53.111,305030,16:58:33:022
-0.0352,-0.0478,-0.0516,46.12,5,1013.98,33.8,57.47,306029,16:58:34:021
0.0238,-0.0309,-0.0118,46.12,5,1013.97,33.7,52.84,307029,16:58:35:021
-0.0367,-4.00E-04,0.0121,46.12,5,1013.99,33.7,55.171,308029,16:58:36:021
-0.0306,0.0107,0.0287,46.12,5,1013.97,33.7,54.106,309029,16:58:37:021
-0.0463,0.0254,0.0598,46.12,5,1013.95,33.7,55.698,310030,16:58:38:022
-0.0414,-0.0183,0.0505,46.12,5,1013.99,33.7,54.209,311030,16:58:39:022
0.0273,-0.0018,0.0253,46.12,5,1013.99,33.6,55.957,312029,16:58:40:021
0.0092,0.014,0.0555,46.12,5,1013.98,33.6,52.433,313029,16:58:41:021
0.012,0.0011,0.0254,46.12,5,1013.97,33.6,55.285,314029,16:58:42:021
0.1003,-0.0108,0.0152,46.12,5,1013.99,33.6,54.587,315029,16:58:43:021
-0.0038,-0.0136,0.0705,46.12,5,1013.97,33.6,54.917,316030,16:58:44:022
-0.0403,-0.0112,0.0021,46.12,5,1014,33.6,54.212,317029,16:58:45:021
-0.001,-0.0144,-0.0484,46.12,5,1013.97,33.5,56.841,318030,16:58:46:022
-0.0253,0.0245,-0.0713,46.12,5,1013.96,33.5,48.864,319030,16:58:47:022
-0.0349,-0.0101,0.0629,46.12,5,1013.98,33.5,52.677,320029,16:58:48:021
-0.0644,0.0592,0.0442,46.12,5,1013.98,33.5,55.403,321029,16:58:49:021
0.0616,0.0043,0.0058,46.12,5,1014.01,33.5,59.113,322030,16:58:50:022
0.0225,-0.0273,-0.0259,46.12,5,1014.01,33.5,55.676,323031,16:58:51:023
-0.0466,-0.035,-0.0292,46.12,5,1014.01,33.5,54.927,324030,16:58:52:022
-0.0701,0.0128,-0.0508,46.12,5,1014.02,33.4,56.673,325029,16:58:53:021
0.027,-0.0403,0.0885,46.12,5,1014.02,33.4,56.244,326029,16:58:54:021
-0.013,0.0307,0.0821,46.12,5,1014.01,33.4,58.063,327029,16:58:55:021
-0.0228,0.0259,0.0169,46.12,5,1014.04,33.4,51.45,328029,16:58:56:021
0.0585,0.0226,-0.0198,46.12,5,1014.02,33.4,56.321,329029,16:58:57:021
-0.037,0.0047,-0.0304,46.12,5,1014.02,33.4,59.493,330029,16:58:58:021
-0.0101,6.00E-04,-0.012,46.12,5,1014.01,33.4,53.416,331030,16:58:59:022
0.0346,0.0422,-0.0525,46.12,5,1014.02,33.3,58.211,332029,16:59:00:021
-0.0094,0.012,-0.0436,46.12,5,1014.04,33.3,56.829,333029,16:59:01:021
0.0179,0.0036,-0.0055,46.12,5,1014.01,33.3,58.628,334030,16:59:02:022
-0.0454,0.007,-0.0289,46.12,5,1014.03,33.3,54.999,335029,16:59:03:021
-0.0281,0.034,0.0624,46.12,5,1014.03,33.3,56.314,336030,16:59:04:022
0.0285,-0.0048,0.0807,46.12,5,1014.03,33.3,59.371,337030,16:59:05:022
3.00E-04,0.0045,-0.0162,46.12,5,1014.07,33.3,56.546,338030,16:59:06:022
-0.025,0.0168,0.0092,46.12,5,1014.06,33.3,57.508,339029,16:59:07:021
0.0012,-0.0359,0.0283,46.12,5,1014.06,33.2,36.283,340029,16:59:08:021
0.0419,-0.0039,-0.0359,46.12,5,1014.07,33.2,49.464,341029,16:59:09:021
0.0129,0.0142,-0.0429,46.12,5,1014.06,33.2,50.795,342030,16:59:10:022
-0.0094,0.0127,0.0741,46.12,5,1014.05,33.2,49.613,343029,16:59:11:021
-4.00E-04,0.0037,0.0291,46.12,5,1014.04,33.2,42.469,344029,16:59:12:021
0.0035,0.0031,-0.0641,46.12,5,1014.05,33.2,47.995,345030,16:59:13:022
0.0384,-0.007,0.0637,46.12,5,1014.04,33.2,50.921,346030,16:59:14:022
0.0025,0.0503,0.0205,46.12,5,1014.05,33.2,56.313,347029,16:59:15:021
0.0103,-7.00E-04,0.0293,46.12,5,1014.07,33.1,54.866,348029,16:59:16:021
0.0089,-0.0112,-0.0189,46.12,5,1014.06,33.1,55.938,349029,16:59:17:021
-0.0013,0.0128,0.0558,46.12,5,1014.08,33.1,54.14,350029,16:59:18:021
-0.0497,0.0135,-0.017,46.12,5,1014.05,33.1,45.678,351030,16:59:19:022
-0.0037,-0.0059,0.0091,46.12,5,1014.06,33.1,52.91,352029,16:59:20:021
-0.0362,0.0086,-0.0415,46.12,5,1014.07,33.1,53.829,353030,16:59:21:022
-0.0102,-0.0116,0.0447,46.12,5,1014.05,33.1,50.85,354029,16:59:22:021
0.0077,-0.0376,0.0537,46.12,5,1014.07,33.1,54.006,355029,16:59:23:021
-0.0149,0.008,-0.0051,46.12,5,1014.07,33.1,52.687,356029,16:59:24:021
-0.0327,-0.0219,0.005,46.12,5,1014.05,33,47.125,357030,16:59:25:022
0.0337,0.0408,-0.0679,46.12,5,1014.06,33,54.832,358029,16:59:26:021
-0.0244,0.0078,0.0485,46.12,5,1014.07,33,55.229,359029,16:59:27:021
-0.0393,0.0282,0.0142,46.12,5,1014.06,33,54.819,360029,16:59:28:021
0.0398,-0.0039,-0.0275,46.12,5,1014.07,33,52.212,361030,16:59:29:022
-0.0331,0.0042,0.0101,46.12,5,1014.07,33,53.864,362029,16:59:30:021
-0.0308,-0.013,0.0175,46.12,5,1014.06,33,52.59,363029,16:59:31:021
0.033,-0.0091,-0.0433,46.12,5,1014.07,33,53.738,364029,16:59:32:021
0.036,-0.0419,0.0147,46.12,5,1014.07,32.9,51.249,365030,16:59:33:022
-0.01,4.00E-04,-0.048,46.12,5,1014.07,32.9,55.642,366030,16:59:34:022
0.0395,0.0043,0.0117,46.12,5,1014.07,32.9,54.443,367030,16:59:35:022
0.0229,0.0097,0.0397,46.12,5,1014.06,32.9,53.042,368029,16:59:36:021
0.0144,-0.0186,-0.0366,46.12,5,1014.05,32.9,50.634,369030,16:59:37:022
0.0025,-0.0078,-0.0685,46.12,5,1014.05,32.9,52.305,370030,16:59:38:022
-0.0297,0.0109,0.0186,46.12,5,1014.05,32.9,53.368,371029,16:59:39:021
0.0033,0.0029,0.0825,46.12,5,1014.07,32.9,52.043,372030,16:59:40:022
0.0118,0.0346,0.0911,46.12,5,1014.09,32.9,50.356,373029,16:59:41:021
-0.0242,-0.0239,-0.0096,46.12,5,1014.09,32.8,54.075,374030,16:59:42:022
-0.0114,0.0096,-0.0176,46.12,5,1014.09,32.8,53.971,375029,16:59:43:021
-0.0057,0.0125,-0.0366,46.12,5,1014.09,32.8,52.263,376030,16:59:44:022
0.0059,-0.0361,0.0041,46.12,5,1014.09,32.8,56.799,377029,16:59:45:021
0.069,0.0047,0.0276,46.12,5,1014.11,32.8,54.088,378029,16:59:46:021
-0.0406,0.0151,-0.0724,46.12,5,1014.08,32.8,56.204,379029,16:59:47:021
-0.002,-0.0118,0.046,46.12,5,1014.1,32.8,56.976,380030,16:59:48:022
-0.0197,0.0042,-0.0318,46.12,5,1014.09,32.8,50.087,381029,16:59:49:021
0.0214,0.0026,-0.0356,46.12,5,1014.08,32.8,57.687,382029,16:59:50:021
0.0335,-0.0232,0.0108,46.12,5,1014.09,32.8,35.576,383030,16:59:51:022
0.0446,-0.0428,0.0203,46.12,5,1014.08,32.7,34.19,384029,16:59:52:021
0.0028,-0.0558,-0.0665,46.12,5,1014.07,32.7,36.289,385029,16:59:53:021
-0.0203,0.0276,0.0595,46.12,5,1014.09,32.7,36.944,386029,16:59:54:021
-0.0081,-0.012,0.0678,46.12,5,1014.09,32.7,36.045,387029,16:59:55:021
7.00E-04,0.0036,0.0628,46.12,5,1014.08,32.7,35.574,388030,16:59:56:022
0.0249,0.0701,0.0278,46.12,5,1014.1,32.7,35.854,389029,16:59:57:021
0.0236,-0.0182,-0.046,46.12,5,1014.09,32.7,37.375,390029,16:59:58:021
0.0467,0.0339,0.0226,46.12,5,1014.09,32.7,36.682,391029,16:59:59:021
0.012,-0.038,-0.0364,46.12,5,1014.11,32.7,37.731,392030,17:00:00:022
0.0066,0.0624,-0.0457,46.12,5,1014.23,32.6,36.285,393029,17:00:01:021
0.0314,0.0448,0.0264,46.12,5,1014.18,32.6,36.275,394030,17:00:02:022
0.0053,0.0415,0.069,46.12,5,1014.17,32.6,37.281,395030,17:00:03:022
-0.0143,-0.0385,0.0126,46.12,5,1014.13,32.6,36.206,396030,17:00:04:022
0.0051,-0.0333,0.0426,46.12,5,1014.14,32.6,37.19,397030,17:00:05:022
0.0306,0.0031,0.046,46.12,5,1014.14,32.6,44.212,398029,17:00:06:021
-0.0098,0.059,-0.0202,46.12,5,1014.13,32.6,36.143,399030,17:00:07:022
-0.002,-0.0014,-0.0407,46.12,5,1014.11,32.6,42.356,400029,17:00:08:021
-0.0276,0.0414,0.0431,46.12,5,1014.1,32.6,38.32,401029,17:00:09:021
-0.0133,-0.0172,0.0513,46.12,5,1014.1,32.6,36.166,402030,17:00:10:022
0.0113,0.0021,-0.0777,46.12,5,1014.1,32.6,36.97,403029,17:00:11:021
0.0025,-0.0228,0.0022,46.12,5,1014.1,32.6,36.906,404030,17:00:12:022
-0.0214,0.0343,0.0771,46.12,5,1014.09,32.5,34.971,405029,17:00:13:021
0.0189,-0.0078,-0.0814,46.12,5,1014.11,32.5,47.003,406029,17:00:14:021
0.028,0.0331,0.0496,46.12,5,1014.08,32.5,45.939,407029,17:00:15:021
-0.0266,-0.0162,-0.0361,46.12,5,1014.1,32.5,45.273,408029,17:00:16:021
0.0384,-0.0024,0.0177,46.12,5,1014.11,32.5,44.483,409029,17:00:17:021
-0.0253,0.0212,0.0635,46.12,5,1014.11,32.5,50.154,410029,17:00:18:021
-0.0233,2.00E-04,-0.0063,46.12,5,1014.11,32.5,50.552,411029,17:00:19:021
0.0091,-0.0507,-0.026,46.12,5,1014.08,32.5,54.146,412029,17:00:20:021
0.0258,0.0397,-0.0321,46.12,5,1014.08,32.5,50.166,413029,17:00:21:021
-0.0194,0.0231,0.032,46.12,5,1014.1,32.4,49.11,414029,17:00:22:021
-0.013,0.082,0.0303,46.12,5,1014.08,32.4,49.194,415030,17:00:23:022
0.0458,-0.0465,-0.0325,46.12,5,1014.08,32.4,48.404,416029,17:00:24:021
-0.0578,-0.0192,-0.0058,46.12,5,1014.1,32.4,51.15,417029,17:00:25:021
-0.0474,-0.0133,0.0283,46.12,5,1014.08,32.4,51.343,418029,17:00:26:021
-0.0391,0.044,0.0068,46.12,5,1014.08,32.4,48.445,419030,17:00:27:022
-0.0022,-0.0042,-0.0245,46.12,5,1014.11,32.4,50.427,420029,17:00:28:021
-0.0454,0.0046,0.0163,46.12,5,1014.11,32.4,50.103,421029,17:00:29:021
0.0176,0.033,-0.0252,46.12,5,1014.14,32.4,49.301,422030,17:00:30:022
-0.0731,0.013,0.083,46.12,5,1014.12,32.4,42.135,423029,17:00:31:021
0,-0.0052,-0.0292,46.12,5,1014.15,32.3,43.288,424029,17:00:32:021
0.0019,-0.0229,0.0137,46.12,5,1014.13,32.3,52.549,425030,17:00:33:022
0.0203,-0.0019,-0.0103,46.12,5,1014.1,32.3,49.946,426030,17:00:34:022
-0.0423,0.0549,0.0563,46.12,5,1014.13,32.3,51.296,427029,17:00:35:021
-0.0086,-0.006,0.0206,46.12,5,1014.13,32.3,47.704,428029,17:00:36:021
-0.0086,0.0023,-0.0392,46.12,5,1014.14,32.3,48.903,429030,17:00:37:022
0.0138,-0.0248,-0.0283,46.12,5,1014.16,32.3,47.147,430029,17:00:38:021
-0.0165,0.0043,-0.0395,46.12,5,1014.16,32.3,43.445,431029,17:00:39:021
-0.005,-0.0074,0.0732,46.12,5,1014.14,32.3,42.503,432030,17:00:40:022
0.0082,-0.0046,0.0737,46.12,5,1014.14,32.3,48.288,433029,17:00:41:021
0.0018,-0.0081,-0.0161,46.12,5,1014.13,32.3,52.114,434029,17:00:42:021
0.0287,-0.0063,-0.0285,46.12,5,1014.12,32.2,47.649,435029,17:00:43:021
0.0034,8.00E-04,0.0183,46.12,5,1014.13,32.2,50.526,436030,17:00:44:022
-0.0145,-0.0151,0.0314,46.12,5,1014.13,32.2,45.85,437029,17:00:45:021
-0.0015,0.0083,-0.0041,46.12,5,1014.14,32.2,43.418,438029,17:00:46:021
-0.0207,0.0379,-0.0238,46.12,5,1014.17,32.2,49.519,439029,17:00:47:021
-0.0392,0.0298,-0.0465,46.12,5,1014.2,32.2,47.571,440029,17:00:48:021
0.0357,-0.0115,0.0424,46.12,5,1014.2,32.2,51.555,441029,17:00:49:021
0.005,-0.0077,0.0189,46.12,5,1014.23,32.2,43.418,442029,17:00:50:021
-0.0128,0.017,-0.0344,46.12,5,1014.2,32.2,51.126,443029,17:00:51:021
-0.019,-0.0097,0.0714,46.12,5,1014.23,32.2,50.12,444030,17:00:52:022
0.0387,0.0076,-0.068,46.12,5,1014.21,32.2,47.343,445029,17:00:53:021
0.0084,0.0053,0.0327,46.12,5,1014.19,32.2,41.167,446029,17:00:54:021
-7.00E-04,-0.0056,0.0021,46.12,5,1014.19,32.2,48.995,447030,17:00:55:022
-0.0641,-0.0177,0.0364,46.12,5,1014.15,32.2,46.717,448029,17:00:56:021
0.0373,0.0031,-0.023,46.12,5,1014.16,32.2,43.15,449029,17:00:57:021
0.0182,-0.026,0.0124,46.12,5,1014.17,32.1,49.192,450030,17:00:58:022
-0.0349,0.0244,0.0099,46.12,5,1014.17,32.1,46.985,451029,17:00:59:021
-0.0408,-0.0202,0.0331,46.12,5,1014.17,32.1,44.821,452029,17:01:00:021
0.0279,-0.0316,0.0411,46.12,5,1014.15,32.1,40.197,453030,17:01:01:022
0.0087,-0.0574,0.0201,46.12,5,1014.13,32.1,42.62,454029,17:01:02:021
-0.0271,0.0572,0.0029,46.12,5,1014.13,32.1,44.196,455030,17:01:03:022
-0.0339,0.0196,-0.0026,46.12,5,1014.14,32.1,51.089,456030,17:01:04:022
-0.0413,0.0405,-0.0304,46.12,5,1014.15,32.1,46.249,457029,17:01:05:021
0.0952,0.0356,-0.026,46.12,5,1014.17,32,53.98,458029,17:01:06:021
0.064,-0.0542,-0.0469,46.12,5,1014.16,32,39.298,459029,17:01:07:021
0.0667,0.03,-0.0405,46.12,5,1014.13,32,45.252,460029,17:01:08:021
0.008,0.0069,0.0025,46.12,5,1014.15,32,52.029,461030,17:01:09:022
0.0996,-0.0606,-0.0554,46.12,5,1014.13,32,53.681,462029,17:01:10:021
0.0173,0.0523,-0.0329,46.12,5,1014.12,32,49.612,463030,17:01:11:022
0.0308,0.0307,-0.009,46.12,5,1014.14,32,46.644,464029,17:01:12:021
-0.024,-0.0441,-0.0042,46.12,5,1014.13,32,48.752,465029,17:01:13:021
0.0138,0.0582,0.0609,46.12,5,1014.15,32,50.17,466029,17:01:14:021
0.0046,0.0377,0.0708,46.12,5,1014.15,32,48.52,467029,17:01:15:021
0.0093,-0.0157,-0.0295,46.12,5,1014.17,32,51.629,468029,17:01:16:021
-0.0207,-0.0124,-0.0486,46.12,5,1014.17,32,47.196,469029,17:01:17:021
0.0245,-0.011,-0.053,46.12,5,1014.18,31.9,46.419,470029,17:01:18:021
0.0338,0.0152,-0.0025,46.12,5,1014.18,31.9,44.869,471029,17:01:19:021
0.0351,-0.014,0.0319,46.12,5,1014.2,31.9,47.054,472029,17:01:20:021
-0.0329,-0.0232,-0.0321,46.12,5,1014.17,31.9,49.44,473029,17:01:21:021
-0.0062,0.0162,-0.0295,46.12,5,1014.18,31.9,51.828,474029,17:01:22:021
0.0177,-0.0407,-0.044,46.12,5,1014.21,31.9,47.843,475030,17:01:23:022
0.0365,-0.0515,0.0263,46.12,5,1014.21,31.9,51.955,476030,17:01:24:022
0.0501,0.005,-0.0231,46.12,5,1014.21,31.9,47.192,477029,17:01:25:021
-0.0199,-0.0374,0.0261,46.12,5,1014.23,31.9,48.394,478029,17:01:26:021
0.0163,0.049,0.0487,46.12,5,1014.2,31.9,51.476,479029,17:01:27:021
-0.0566,0.0422,-0.0049,46.12,5,1014.22,31.9,51.587,480029,17:01:28:021
-0.0026,-0.0237,0.0153,46.12,5,1014.2,31.9,49.294,481029,17:01:29:021
-0.0081,-0.0646,0.0367,46.12,5,1014.21,31.8,49.671,482029,17:01:30:021
0.0698,0.0286,0.0349,46.12,5,1014.21,31.8,50.301,483030,17:01:31:022
-0.0096,-0.0569,0.0047,46.12,5,1014.21,31.8,45.382,484029,17:01:32:021
-0.0075,-0.0115,0.0188,46.12,5,1014.23,31.8,45.407,485030,17:01:33:022
-0.0203,0.0493,0.0469,46.12,5,1014.19,31.8,50.206,486029,17:01:34:021
0.0205,-0.0113,-0.045,46.12,5,1014.2,31.8,47.725,487029,17:01:35:021
0.0367,0.008,0.0197,46.12,5,1014.19,31.8,47.888,488029,17:01:36:021
-0.0277,-0.0194,0.0015,46.12,5,1014.18,31.8,47.452,489030,17:01:37:022
0.0288,-0.0178,-0.0655,46.12,5,1014.17,31.8,51.105,490029,17:01:38:021
0.0207,-0.0325,-0.0563,46.12,5,1014.16,31.8,49.197,491029,17:01:39:021
0.0235,0.0058,0.101,46.12,5,1014.18,31.8,49.473,492030,17:01:40:022
0.0341,0.0217,-0.0908,46.12,5,1014.18,31.8,50.906,493030,17:01:41:022
-0.0174,-1.00E-04,0.058,46.12,5,1014.17,31.8,49.045,494029,17:01:42:021
0.0057,0.0034,-0.0013,46.12,5,1014.17,31.8,50.074,495030,17:01:43:022
-0.0509,-8.00E-04,0.07,46.12,5,1014.19,31.7,47.693,496029,17:01:44:021
-0.0171,-0.0384,-0.0174,46.12,5,1014.16,31.7,50.231,497029,17:01:45:021
-0.0537,-0.0922,0.0113,46.12,5,1014.18,31.7,48.505,498029,17:01:46:021
-0.0165,0.0106,-0.0046,46.12,5,1014.16,31.7,46.295,499029,17:01:47:021
-0.0155,0.0284,0.0796,46.12,5,1014.2,31.7,45.706,500030,17:01:48:022
0.0506,0.0294,0.0801,46.12,5,1014.21,31.7,51.382,501029,17:01:49:021
0.0061,0.0666,0.0112,46.12,5,1014.2,31.7,50.24,502029,17:01:50:021
-0.0401,0.0251,-0.0601,46.12,5,1014.2,31.7,51.251,503029,17:01:51:021
0.0518,0.0015,-0.0488,46.12,5,1014.21,31.7,49.965,504029,17:01:52:021
0.0444,-0.015,-0.0055,46.12,5,1014.42,31.7,51.78,505029,17:01:53:021
0.0397,0.011,-0.0498,46.12,5,1014.38,31.7,44.482,506029,17:01:54:021
-0.0146,0.0296,0.0138,46.12,5,1014.33,31.7,49.844,507030,17:01:55:022
0.0245,0.0225,-0.0271,46.12,5,1014.28,31.7,48.107,508029,17:01:56:021
-0.0294,-0.0201,-0.0334,46.12,5,1014.24,31.7,44.019,509029,17:01:57:021
-0.0155,0.0258,0.1383,46.12,5,1014.28,31.7,50.371,510030,17:01:58:022
-0.0023,0.0031,0.0843,46.12,5,1014.26,31.7,47.685,511029,17:01:59:021
0.0014,-0.0092,-7.00E-04,46.12,5,1014.24,31.7,50.48,512029,17:02:00:021
-0.0131,0.0219,-0.0083,46.12,5,1014.24,31.7,49.267,513029,17:02:01:021
-0.0044,-0.0263,0.0396,46.12,5,1014.23,31.7,49.163,514029,17:02:02:021
-0.0165,-0.0143,0.0172,46.12,5,1014.2,31.7,47.525,515029,17:02:03:021
-0.0208,-0.0341,0.0242,46.12,5,1014.2,31.6,55.528,516029,17:02:04:021
-0.0226,-0.0026,0.06,46.12,5,1014.19,31.6,42.348,517030,17:02:05:022
0.0121,-0.006,-0.0917,46.12,5,1014.19,31.6,44.621,518030,17:02:06:022
0.0147,0.0015,-0.0455,46.12,5,1014.21,31.6,38.652,519029,17:02:07:021
0.021,-0.0387,-0.0056,46.12,5,1014.21,31.6,45.683,520029,17:02:08:021
0.0078,0.0086,0.0025,46.12,5,1014.26,31.6,42.55,521029,17:02:09:021
0.0361,0.0278,-0.08,46.12,5,1014.28,31.6,36.594,522029,17:02:10:021
0.0175,0.0478,-0.0191,46.12,5,1014.32,31.6,36.72,523029,17:02:11:021
0.0033,0.0054,0.0178,46.12,5,1014.29,31.6,36.265,524029,17:02:12:021
-0.009,0.0096,-0.0551,46.12,5,1014.27,31.6,36.175,525029,17:02:13:021
-0.0108,0.0275,0.0131,46.12,5,1014.24,31.6,36.314,526030,17:02:14:022
0.0341,-0.0082,0.0479,46.12,5,1014.23,31.6,36.995,527029,17:02:15:021
0.046,0.0394,-0.0414,46.12,5,1014.28,31.6,37.107,528029,17:02:16:021
-0.0085,-1.00E-04,0.098,46.12,5,1014.26,31.6,35.298,529029,17:02:17:021
-0.0443,-0.0079,0.0534,46.12,5,1014.23,31.6,35.884,530029,17:02:18:021
0.0125,0.0127,0.0301,46.12,5,1014.21,31.6,35.84,531029,17:02:19:021
0.0048,-0.0595,-0.0855,46.12,5,1014.2,31.6,36.985,532029,17:02:20:021
0.004,-0.02,-0.0773,46.12,5,1014.18,31.5,36.93,533030,17:02:21:022
0.0767,0.0158,-0.1022,46.12,5,1014.16,31.5,36.864,534029,17:02:22:021
-0.0399,-0.0474,-0.0129,46.12,5,1014.2,31.5,37.496,535029,17:02:23:021
-0.034,0.0259,-0.0192,46.12,5,1014.18,31.5,35.743,536029,17:02:24:021
0.019,-0.0335,-0.0505,46.12,5,1014.17,31.5,36.795,537030,17:02:25:022
-0.0033,0.0186,0.0623,46.12,5,1014.18,31.5,35.903,538030,17:02:26:022
-0.0209,0.0336,-0.0098,46.12,5,1014.15,31.5,38.589,539029,17:02:27:021
0.0264,-0.0176,-0.0349,46.12,5,1014.15,31.5,37.473,540029,17:02:28:021
-0.0554,-0.0292,-0.0302,46.12,5,1014.18,31.5,36.715,541029,17:02:29:021
-0.05,0.0027,0.0174,46.12,5,1014.17,31.5,36.257,542029,17:02:30:021
-0.023,-0.0047,0.0226,46.12,5,1014.17,31.5,36.385,543030,17:02:31:022
-0.0183,0.0172,0.0294,46.12,5,1014.23,31.5,36.878,544030,17:02:32:022
0.0534,-0.0121,0.0099,46.12,5,1014.23,31.5,35.601,545030,17:02:33:022
0.0049,-0.0147,-0.0319,46.12,5,1014.22,31.4,36.347,546029,17:02:34:021
0.0196,0.0172,0.0452,46.12,5,1014.22,31.4,36.899,547030,17:02:35:022
-0.0358,0.0628,0.0265,46.12,5,1014.21,31.4,34.657,548030,17:02:36:022
-0.0053,0.0061,0.0469,46.12,5,1014.24,31.4,35.319,549029,17:02:37:021
0.011,0.0282,0.0033,46.12,5,1014.24,31.4,33.544,550030,17:02:38:022
-0.0097,-0.014,0.018,46.12,5,1014.19,31.4,33.352,551030,17:02:39:022
0.041,-0.0168,0.0023,46.12,5,1014.23,31.4,35.103,552030,17:02:40:022
-0.0199,-0.0265,-0.0555,46.12,5,1014.2,31.4,34.456,553029,17:02:41:021
-0.0329,0.0429,-0.0078,46.12,5,1014.18,31.4,34.354,554029,17:02:42:021
-0.0064,0.0235,-0.0125,46.12,5,1014.17,31.4,37.457,555030,17:02:43:022
-0.0274,-0.0109,0.1177,46.12,5,1014.17,31.4,59.039,556029,17:02:44:021
-0.0119,0.0252,0.0593,46.12,5,1014.19,31.4,34.794,557029,17:02:45:021
0.0339,0.0181,0.0116,46.12,5,1014.19,31.4,34.922,558029,17:02:46:021
-0.0106,-0.0289,-0.0672,46.12,5,1014.19,31.4,36.387,559030,17:02:47:022
0.0046,-0.016,-0.0697,46.12,5,1014.16,31.3,35.167,560030,17:02:48:022
0.0026,-0.0063,0.0057,46.12,5,1014.18,31.3,35.609,561029,17:02:49:021
-0.0377,0.0072,0.0431,46.12,5,1014.17,31.3,37.743,562029,17:02:50:021
-0.021,-0.0016,0.0434,46.12,5,1014.19,31.3,35.372,563029,17:02:51:021
-0.0585,0.0055,-0.0264,46.12,5,1014.19,31.3,33.598,564029,17:02:52:021
0.0055,-0.0181,-0.0068,46.12,5,1014.19,31.3,34.95,565033,17:02:53:025
-0.0273,0.0083,0.0061,46.12,5,1014.21,31.3,34.539,566030,17:02:54:022
-0.0145,-0.0985,0.0874,46.12,5,1014.21,31.3,34.79,567029,17:02:55:021
0,-0.0261,0.0412,46.12,5,1014.22,31.3,33.558,568029,17:02:56:021
-0.0059,0.0202,0.014,46.12,5,1014.22,31.3,36.264,569029,17:02:57:021
-0.0172,-0.0963,-0.0524,46.12,5,1014.21,31.3,57.468,570029,17:02:58:021
0.0038,-0.0299,-0.0197,46.12,5,1014.21,31.3,48.448,571030,17:02:59:022
-0.0308,0.0449,-0.0165,46.12,5,1014.21,31.3,34.979,572029,17:03:00:021
-0.0467,0.0029,-0.0028,46.12,5,1014.22,31.3,35.819,573029,17:03:01:021
0.0306,0.0075,0.0061,46.12,5,1014.22,31.2,35.157,574030,17:03:02:022
-0.0084,-0.0297,-0.0479,46.12,5,1014.23,31.2,36.465,575030,17:03:03:022
0.0088,0.0604,-0.0652,46.12,5,1014.21,31.2,36.812,576029,17:03:04:021
0.0446,0.0267,0.0119,46.12,5,1014.22,31.2,37.319,577029,17:03:05:021
0.0126,0.0535,0.1054,46.12,5,1014.2,31.2,35.485,578030,17:03:06:022
-0.0231,0.0073,0.0093,46.12,5,1014.31,31.2,36.96,579029,17:03:07:021
0.0222,-0.0098,0.0471,46.12,5,1014.76,31.2,35.675,580029,17:03:08:021
0.0054,0.0084,-0.022,46.12,5,1014.7,31.3,35.035,581029,17:03:09:021
0.0011,0.0276,-0.0506,46.12,5,1014.53,31.3,41.641,582029,17:03:10:021
0.0157,-0.0584,0.0293,46.12,5,1014.41,31.3,35.881,583029,17:03:11:021
-0.0085,0.0504,0.0372,46.12,5,1014.36,31.3,34.024,584029,17:03:12:021
-0.0119,0.0208,0.0411,46.12,5,1014.33,31.3,34.367,585029,17:03:13:021
0.0341,-0.0725,-0.0191,46.12,5,1014.29,31.3,35.642,586029,17:03:14:021
0.0057,0.0016,0.0018,46.12,5,1014.23,31.3,33.787,587029,17:03:15:021
-0.0323,0.0096,-0.004,46.12,5,1014.23,31.3,33.684,588030,17:03:16:022
0.0258,-0.0322,0.0058,46.12,5,1014.2,31.3,34.584,589029,17:03:17:021
0.043,-0.0249,-0.0367,46.12,5,1014.17,31.3,32.808,590030,17:03:18:022
0.0041,0.0348,7.00E-04,46.12,5,1014.17,31.3,34.569,591029,17:03:19:021
0.0036,-0.0159,0.013,46.12,5,1014.17,31.2,36.241,592030,17:03:20:022
0.0421,0.0011,-0.1045,46.12,5,1014.13,31.2,37.693,593029,17:03:21:021
-0.0074,0.0234,0.0327,46.12,5,1014.15,31.2,33.743,594029,17:03:22:021
-0.0267,0.0195,-0.0232,46.12,5,1014.14,31.2,36.085,595029,17:03:23:021
-0.0095,-0.0329,0.0337,46.12,5,1014.15,31.2,34.097,596030,17:03:24:022
0.0045,0.0242,0.0141,46.12,5,1014.16,31.2,33.984,597029,17:03:25:021
0.0534,-8.00E-04,-0.0283,46.12,5,1014.15,31.2,34.945,598029,17:03:26:021
-0.0542,-0.0099,-0.0376,46.12,5,1014.15,31.2,34.352,599029,17:03:27:021
-8.00E-04,0.0188,-0.006,46.12,5,1014.15,31.2,34.724,600029,17:03:28:021
-0.022,-0.0173,-0.0233,46.12,5,1014.15,31.1,34.485,601029,17:03:29:021
-0.0013,-0.0134,-0.0779,46.12,5,1014.17,31.1,34.729,602029,17:03:30:021
0.0184,0.0179,-0.0085,46.12,5,1014.19,31.1,35.116,603029,17:03:31:021
-0.0084,-0.02,0.0173,46.12,5,1014.16,31.1,35.199,604029,17:03:32:021
-0.0141,0.0336,-0.0458,46.12,5,1014.17,31.1,35.413,605029,17:03:33:021
0.0054,0.0245,-0.0614,46.12,5,1014.19,31.1,35.909,606029,17:03:34:021
-0.0199,-0.0264,0.046,46.12,5,1014.17,31.1,36.087,607030,17:03:35:022
-0.0367,-0.0232,0.0579,46.12,5,1014.16,31.1,36.11,608029,17:03:36:021
-0.0273,0.0068,0.0016,46.12,5,1014.16,31.1,35.586,609029,17:03:37:021
-0.0041,0.0052,0.0686,46.12,5,1014.17,31.1,35.792,610030,17:03:38:022
-0.0274,0.0046,0.0191,46.12,5,1014.16,31.1,36.617,611029,17:03:39:021
-0.0131,0.0011,-0.0148,46.12,5,1014.16,31,35.881,612030,17:03:40:022
-0.0211,-0.0394,-1.00E-04,46.12,5,1014.16,31,35.625,613029,17:03:41:021
0.0877,-0.034,-0.014,46.12,5,1014.18,31,37.04,614029,17:03:42:021
0.0061,0.023,0.0292,46.12,5,1014.16,31,35.003,615030,17:03:43:022
0.0298,0.0339,-0.034,46.12,5,1014.18,31,36.158,616030,17:03:44:022
0.0414,0.0225,0.0132,46.12,5,1014.17,31,35.058,617029,17:03:45:021
-0.0286,0.0126,-0.0441,46.12,5,1014.17,31,34.836,618029,17:03:46:021
0.0208,0.0084,-0.0904,46.12,5,1014.15,31,35.03,619029,17:03:47:021
0.022,0.0275,0.0688,46.12,5,1014.16,31,34.521,620030,17:03:48:022
0.0225,0.0268,-0.0075,46.12,5,1014.15,31,34.11,621029,17:03:49:021
-0.0273,-0.0122,-0.0635,46.12,5,1014.16,31,33.858,622029,17:03:50:021
-0.0127,-0.0067,0.0477,46.12,5,1014.15,31,33.394,623029,17:03:51:021
0.0128,0.0304,-0.0288,46.12,5,1014.17,31,35.053,624029,17:03:52:021
-0.0066,0.0075,0.0424,46.12,5,1014.18,31,33.595,625029,17:03:53:021
0.0484,-0.0128,-0.004,46.12,5,1014.19,30.9,32.116,626029,17:03:54:021
-0.0214,-0.0138,-0.0788,46.12,5,1014.19,30.9,33.793,627029,17:03:55:021
0.007,-0.0131,-0.0045,46.12,5,1014.17,30.9,34.818,628029,17:03:56:021
-0.0018,0.0313,-0.015,46.12,5,1014.18,30.9,33.727,629029,17:03:57:021
0.044,0.0026,-0.1001,46.12,5,1014.16,30.9,33.52,630029,17:03:58:021
0.0265,0.0409,-0.0275,46.12,5,1014.2,30.9,35.169,631029,17:03:59:021
0.0136,-0.0386,-0.0078,46.12,5,1014.18,30.9,34.724,632029,17:04:00:021
-0.0052,-0.0419,0.0225,46.12,5,1014.19,30.9,33.431,633029,17:04:01:021
0.0473,-0.0279,-0.0207,46.12,5,1014.19,30.9,36.18,634030,17:04:02:022
-0.0424,0.0274,-0.0779,46.12,5,1014.19,30.9,32.749,635029,17:04:03:021
-0.0026,-0.0104,-0.0445,46.12,5,1014.2,30.9,32.659,636030,17:04:04:022
0.0392,0.0098,0.0191,46.12,5,1014.21,30.9,34.366,637030,17:04:05:022
-0.0515,0.0217,-0.0147,46.12,5,1014.2,30.9,32.805,638029,17:04:06:021
-0.0354,-0.0127,-0.0252,46.12,5,1014.24,30.9,32.311,639030,17:04:07:022
-0.0044,0.0616,0.0756,46.12,5,1014.24,30.9,32.751,640029,17:04:08:021
-0.0264,0.0404,-0.0345,46.12,5,1014.24,30.9,31.953,641030,17:04:09:022
-0.029,-0.0045,0.0307,46.12,5,1014.23,30.8,31.828,642029,17:04:10:021
0.0558,-0.0331,-0.024,46.12,5,1014.22,30.8,33.391,643029,17:04:11:021
-0.0524,0.0118,0.0265,46.12,5,1014.22,30.8,33.023,644029,17:04:12:021
0.0328,0.0502,0.0483,46.12,5,1014.19,30.8,31.859,645029,17:04:13:021
-0.0087,-0.0103,0.0492,46.12,5,1014.2,30.8,33.265,646030,17:04:14:022
-0.0504,-0.0081,0.0096,46.12,5,1014.21,30.8,33.367,647030,17:04:15:022
0.0521,0.0252,0.0017,46.12,5,1014.22,30.8,33.397,648029,17:04:16:021
0.0137,-0.0131,0.0454,46.12,5,1014.24,30.8,33.56,649030,17:04:17:022
-0.0386,0.0433,0.042,46.12,5,1014.22,30.8,34.409,650029,17:04:18:021
0.0235,-0.0242,-0.0618,46.12,5,1014.22,30.8,33.386,651029,17:04:19:021
-0.0176,8.00E-04,0.0775,46.12,5,1014.21,30.8,34.581,652030,17:04:20:022
0.0081,-0.0625,0.0242,46.12,5,1014.23,30.8,34.358,653029,17:04:21:021
-0.0031,0.0358,-4.00E-04,46.12,5,1014.2,30.8,34.738,654029,17:04:22:021
0.022,0.0053,-0.0464,46.12,5,1014.2,30.8,35.027,655030,17:04:23:022
0.0137,0.0018,-0.061,46.12,5,1014.22,30.8,35.543,656029,17:04:24:021
-0.0165,-0.0393,0.0183,46.12,5,1014.22,30.7,35.221,657029,17:04:25:021
0.066,-0.0015,-0.0165,46.12,5,1014.21,30.7,34.662,658030,17:04:26:022
0.0164,-0.0164,0.0665,46.12,5,1014.24,30.7,36.4,659030,17:04:27:022
-0.0631,-0.0261,-0.0294,46.12,5,1014.24,30.7,35.306,660029,17:04:28:021
0.0185,-0.0742,-0.0793,46.12,5,1014.21,30.7,35.66,661029,17:04:29:021
0.0257,0.0186,-0.0129,46.12,5,1014.22,30.7,35.382,662030,17:04:30:022
-0.0016,-0.0058,-0.0511,46.12,5,1014.21,30.7,35.64,663030,17:04:31:022
-0.0105,-0.0046,-0.0449,46.12,5,1014.23,30.7,35.018,664029,17:04:32:021
-0.0177,-0.0463,-0.0069,46.12,5,1014.22,30.7,35.121,665029,17:04:33:021
0.0758,-0.0062,-0.0044,46.12,5,1014.23,30.7,35.004,666029,17:04:34:021
-0.0208,-0.0095,-0.0478,46.12,5,1014.21,30.7,36.32,667030,17:04:35:022
-0.0017,-0.034,-0.0226,46.12,5,1014.22,30.7,35.38,668030,17:04:36:022
0.0213,0.0151,-0.0239,46.12,5,1014.24,30.7,35.841,669029,17:04:37:021
-0.0127,0.0043,0.0201,46.12,5,1014.22,30.7,34.091,670029,17:04:38:021
0.019,-0.0192,0.0823,46.12,5,1014.25,30.7,34.521,671029,17:04:39:021
0.0051,8.00E-04,0.0328,46.12,5,1014.23,30.7,34.753,672029,17:04:40:021
0.042,-0.0131,0.0329,46.12,5,1014.23,30.7,34.321,673030,17:04:41:022
-0.0189,0.0482,0.0471,46.12,5,1014.27,30.7,34.048,674030,17:04:42:022
-0.0876,-0.029,-0.0093,46.12,5,1014.24,30.7,33.918,675030,17:04:43:022
0.0054,0.0019,-6.00E-04,46.12,5,1014.22,30.7,34.222,676029,17:04:44:021
0.019,-0.0288,0.0582,46.12,5,1014.24,30.6,35.354,677029,17:04:45:021
0.0262,-0.0366,0.0078,46.12,5,1014.26,30.6,33.828,678029,17:04:46:021
-0.0416,0.0306,0.1037,46.12,5,1014.25,30.6,34.319,679029,17:04:47:021
-0.0145,-0.0281,-0.0319,46.12,5,1014.26,30.6,35.425,680029,17:04:48:021
-0.0964,0.0067,-0.0319,46.12,5,1014.25,30.6,34.62,681029,17:04:49:021
0.0382,-0.0502,0.0353,46.12,5,1014.25,30.6,34.806,682030,17:04:50:022
0.0203,0.0648,0.0458,46.12,5,1014.26,30.6,34.697,683029,17:04:51:021
-0.0182,0.0098,0.0471,46.12,5,1014.27,30.6,35.688,684029,17:04:52:021
0.0269,0.0614,-0.0322,46.12,5,1014.27,30.6,36.241,685029,17:04:53:021
-0.0187,0.0532,-0.0218,46.12,5,1014.25,30.6,35.74,686030,17:04:54:022
0.0251,0.0055,-0.0017,46.12,5,1014.27,30.6,35.173,687029,17:04:55:021
0.0391,-0.0138,-0.0278,46.12,5,1014.29,30.6,35.704,688029,17:04:56:021
-0.0363,0.0241,-0.0761,46.12,5,1014.29,30.6,34.35,689029,17:04:57:021
0.0199,-0.0623,0.0199,46.12,5,1014.29,30.6,35.09,690029,17:04:58:021
-0.047,0.0039,0.0089,46.12,5,1014.28,30.6,36.98,691030,17:04:59:022
0.0235,-0.021,-0.0317,46.12,5,1014.3,30.6,35.631,692030,17:05:00:022
0.0177,-0.0192,-0.0635,46.12,5,1014.28,30.6,34.22,693029,17:05:01:021
-0.0251,0.0348,-0.0137,46.12,5,1014.28,30.6,35.109,694029,17:05:02:021
7.00E-04,0.0234,-0.0859,46.12,5,1014.26,30.6,33.066,695029,17:05:03:021
0.0367,0.0075,0.0738,46.12,5,1014.28,30.5,32.436,696029,17:05:04:021
-0.0048,0.0165,0.0364,46.12,5,1014.25,30.5,32.81,697029,17:05:05:021
0.0529,-0.0102,0.0232,46.12,5,1014.24,30.5,34.334,698030,17:05:06:022
-0.0299,-0.0088,0.0417,46.12,5,1014.24,30.5,33.417,699029,17:05:07:021
-0.0106,-0.0092,-0.002,46.12,5,1014.25,30.5,33.882,700029,17:05:08:021
0.0374,-0.0092,0.0158,46.12,5,1014.25,30.5,33.769,701029,17:05:09:021
-0.0095,-0.0442,-0.0662,46.12,5,1014.23,30.5,33.455,702029,17:05:10:021
0.038,0.0108,0.0068,46.12,5,1014.22,30.5,33.542,703029,17:05:11:021
7.00E-04,-0.0539,-0.0444,46.12,5,1014.24,30.5,34.125,704029,17:05:12:021
-0.0238,0.0296,0.0176,46.12,5,1014.22,30.5,34.673,705029,17:05:13:021
-0.0257,0.0227,0.0803,46.12,5,1014.22,30.5,35.122,706030,17:05:14:022
-0.0048,0.0485,0.0626,46.12,5,1014.24,30.5,35.278,707029,17:05:15:021
-0.039,0.0056,-0.0274,46.12,5,1014.25,30.5,40.808,708029,17:05:16:021
0.0152,0.0236,-0.0253,46.12,5,1014.22,30.5,35.433,709030,17:05:17:022
0.0298,-0.0099,-0.0654,46.12,5,1014.23,30.5,34.637,710029,17:05:18:021
-0.0064,-0.007,0.0204,46.12,5,1014.24,30.5,34.734,711029,17:05:19:021
-0.0202,0.014,-0.0579,46.12,5,1014.22,30.5,35.891,712030,17:05:20:022
0.0185,0.0221,-0.0091,46.12,5,1014.22,30.5,34.295,713029,17:05:21:021
0.01,4.00E-04,0.0274,46.12,5,1014.21,30.5,34.136,714029,17:05:22:021
-0.0062,0.0236,-0.0029,46.12,5,1014.22,30.5,34.449,715029,17:05:23:021
0.0233,0.0092,0.0047,46.12,5,1014.21,30.4,35.396,716030,17:05:24:022
0.0258,0.0076,-0.0442,46.12,5,1014.18,30.4,34.78,717030,17:05:25:022
0.0126,-0.0262,0.0356,46.12,5,1014.19,30.4,34.75,718030,17:05:26:022
-0.0374,-0.0015,-0.045,46.12,5,1014.22,30.4,36.186,719030,17:05:27:022
0.0217,-0.0436,-0.0058,46.12,5,1014.19,30.4,35.263,720029,17:05:28:021
0.0373,0.0113,0.0477,46.12,5,1014.19,30.4,34.021,721029,17:05:29:021
-0.0154,-0.0097,-0.0799,46.12,5,1014.2,30.4,35.404,722029,17:05:30:021
0.0408,0.0075,0.0255,46.12,5,1014.22,30.4,32.942,723029,17:05:31:021
-0.0508,-0.0568,-0.0707,46.12,5,1014.22,30.4,34.727,724029,17:05:32:021
-0.0301,-0.0385,0.0231,46.12,5,1014.23,30.4,33.471,725029,17:05:33:021
-0.0161,0.0542,-0.0561,46.12,5,1014.22,30.4,33.663,726030,17:05:34:022
-5.00E-04,0.0253,0.0496,46.12,5,1014.25,30.4,32.621,727029,17:05:35:021
-0.0082,0.031,-0.0446,46.12,5,1014.24,30.4,32.626,728030,17:05:36:022
-0.0244,0.0253,-0.0262,46.12,5,1014.22,30.4,32.948,729030,17:05:37:022
0.0154,-0.0086,-0.0237,46.12,5,1014.22,30.4,33.612,730029,17:05:38:021
0.0059,-0.003,0.0537,46.12,5,1014.21,30.4,33.351,731030,17:05:39:022
0.0128,-0.0073,0.0297,46.12,5,1014.24,30.4,34.087,732029,17:05:40:021
-0.021,-0.011,-1.00E-04,46.12,5,1014.23,30.4,33.672,733029,17:05:41:021
0.0184,-0.0012,-0.0285,46.12,5,1014.22,30.4,34.613,734029,17:05:42:021
-0.0321,-0.0361,-0.0137,46.12,5,1014.22,30.4,34.792,735029,17:05:43:021
0.0374,0.0209,0.0805,46.12,5,1014.22,30.3,34.755,736029,17:05:44:021
-0.0011,0.0144,-0.0525,46.12,5,1014.22,30.3,35.622,737029,17:05:45:021
-0.0121,-0.0494,-0.0015,46.12,5,1014.22,30.3,35.137,738029,17:05:46:021
-0.0148,-0.012,0.0695,46.12,5,1014.2,30.3,34.75,739029,17:05:47:021
0.0384,-0.0237,0.0492,46.12,5,1014.2,30.3,34.913,740029,17:05:48:021
-0.0157,0.0233,-0.0528,46.12,5,1014.21,30.3,35.601,741029,17:05:49:021
-0.0125,-0.0335,0.0023,46.12,5,1014.21,30.3,35.259,742030,17:05:50:022
0.0805,-0.009,0.049,46.12,5,1014.24,30.3,34.901,743029,17:05:51:021
-0.0407,0.0437,-0.042,46.12,5,1014.24,30.3,35.474,744030,17:05:52:022
-0.05,0.0044,0.0104,46.12,5,1014.21,30.3,34.896,745030,17:05:53:022
-0.0115,-0.0222,0.0718,46.12,5,1014.23,30.3,34.921,746030,17:05:54:022
-0.0227,0.0162,0.011,46.12,5,1014.23,30.3,34.884,747029,17:05:55:021
0.0194,-0.0665,-0.0435,46.12,5,1014.22,30.3,35.064,748029,17:05:56:021
0.0193,-0.014,0.0026,46.12,5,1014.23,30.3,36.071,749029,17:05:57:021
0.0877,-0.0228,0.0137,46.12,5,1014.23,30.3,38.65,750029,17:05:58:021
-0.001,-0.03,0.0082,46.12,5,1014.23,30.3,35.15,751029,17:05:59:021
-0.0085,0.0089,-0.004,46.12,5,1014.26,30.3,35.786,752030,17:06:00:022
-0.0055,0.0412,0.0318,46.12,5,1014.24,30.3,33.318,753029,17:06:01:021
-0.0361,-0.0369,0.0591,46.12,5,1014.26,30.3,35.675,754029,17:06:02:021
-0.0545,-0.0035,-0.0468,46.12,5,1014.26,30.3,35.614,755030,17:06:03:022
-0.0262,-0.0401,-0.0317,46.12,5,1014.26,30.3,36.339,756030,17:06:04:022
0.0405,0.0122,-0.0045,46.12,5,1014.25,30.3,34.591,757030,17:06:05:022
0.0037,-0.0222,-0.0547,46.12,5,1014.25,30.3,34.762,758030,17:06:06:022
0.0167,0.0548,0.0035,46.12,5,1014.28,30.3,36.495,759029,17:06:07:021
0.0771,0.0323,-0.0853,46.12,5,1014.27,30.3,34.42,760029,17:06:08:021
0.0224,-0.0176,0.0195,46.12,5,1014.28,30.3,33.481,761030,17:06:09:022
-0.0283,0.042,0.0398,46.12,5,1014.3,30.3,36.041,762030,17:06:10:022
0.0052,0.037,-0.0464,46.12,5,1014.29,30.2,35.872,763030,17:06:11:022
0.0426,-0.0084,-0.0014,46.12,5,1014.29,30.2,34.455,764029,17:06:12:021
-0.0283,0.0045,-0.0016,46.12,5,1014.28,30.2,33.485,765029,17:06:13:021
-0.0098,-0.0279,-0.0262,46.12,5,1014.27,30.2,32.577,766030,17:06:14:022
0.0092,0.0237,0.0269,46.12,5,1014.29,30.2,33.416,767029,17:06:15:021
0.0074,-0.034,0.0189,46.12,5,1014.28,30.2,33.325,768029,17:06:16:021
-0.0074,-0.0108,0.1276,46.12,5,1014.28,30.2,33.171,769030,17:06:17:022
0.0378,0.018,-0.0423,46.12,5,1014.27,30.2,35.671,770029,17:06:18:021
0.0281,-0.033,0.0604,46.12,5,1014.3,30.2,35.71,771029,17:06:19:021
-0.0258,0.0076,-0.0524,46.12,5,1014.3,30.2,37.028,772030,17:06:20:022
0.0121,-0.0186,0.0471,46.12,5,1014.46,30.2,33.526,773029,17:06:21:021
-0.0529,-0.0112,-0.02,46.12,5,1014.45,30.2,34.226,774030,17:06:22:022
0.0118,0.0038,0.0698,46.12,5,1014.4,30.2,37.016,775029,17:06:23:021
0.0739,-0.0217,-0.0067,46.12,5,1014.35,30.2,32.859,776030,17:06:24:022
0.0029,2.00E-04,-0.017,46.12,5,1014.32,30.2,33.496,777033,17:06:25:025
-0.0188,0.0333,0.005,46.12,5,1014.31,30.2,33.773,778029,17:06:26:021
-0.0158,-0.0142,-0.0091,46.12,5,1014.29,30.2,36.227,779030,17:06:27:022
3.00E-04,0.08,-0.0065,46.12,5,1014.28,30.2,36.592,780029,17:06:28:021
0.0496,-0.1507,-0.0125,46.12,5,1014.25,30.2,36.164,781029,17:06:29:021
-0.0092,0.0093,0.0273,46.12,5,1014.26,30.2,33.351,782030,17:06:30:022
0.0176,0.0035,0.0151,46.12,5,1014.24,30.2,34.035,783030,17:06:31:022
-0.001,0.0064,0.0506,46.12,5,1014.23,30.2,33.057,784029,17:06:32:021
0.0284,-0.0154,0.0379,46.12,5,1014.29,30.2,33.147,785029,17:06:33:021
-0.0047,0.0227,0.011,46.12,5,1014.3,30.2,33.933,786029,17:06:34:021
0.0086,-0.0154,-0.0356,46.12,5,1014.3,30.2,36.438,787029,17:06:35:021
0.0508,-0.0139,0.0523,46.12,5,1014.34,30.2,32.408,788029,17:06:36:021
0.0318,-0.0308,-0.0171,46.12,5,1014.29,30.2,32.722,789030,17:06:37:022
0.0518,-0.0466,0.0053,46.12,5,1014.3,30.2,35.106,790029,17:06:38:021
0.0161,0.0235,0.0472,46.12,5,1014.28,30.2,35.568,791029,17:06:39:021
-0.0186,-0.018,0.0694,46.12,5,1014.28,30.2,37.033,792029,17:06:40:021
0.0238,0.0155,0.0259,46.12,5,1014.26,30.2,34.515,793029,17:06:41:021
-0.0254,0.0179,0.0145,46.12,5,1014.24,30.2,35.836,794030,17:06:42:022
0.0283,-0.0091,-0.0212,46.12,5,1014.21,30.2,33.22,795029,17:06:43:021
0.0407,-0.0054,-0.0579,46.12,5,1014.2,30.2,35.845,796030,17:06:44:022
0.0037,-0.0211,0.0482,46.12,5,1014.2,30.2,38.585,797030,17:06:45:022
0.0923,-0.0216,-0.033,46.12,5,1014.19,30.2,33.695,798029,17:06:46:021
0.01,8.00E-04,-0.0394,46.12,5,1014.18,30.2,33.701,799029,17:06:47:021
0.0495,-0.0023,0.0182,46.12,5,1014.19,30.2,33.363,800029,17:06:48:021
0.0358,-0.0026,-0.0306,46.12,5,1014.16,30.2,34.752,801029,17:06:49:021
0.0109,-0.0186,0.0362,46.12,5,1014.15,30.1,36.156,802030,17:06:50:022
0.0773,0.0509,-0.0587,46.12,5,1014.18,30.1,34.455,803029,17:06:51:021
-0.0124,0.0016,-0.0436,46.12,5,1014.17,30.1,34.009,804029,17:06:52:021
-0.0171,0.036,-0.0487,46.12,5,1014.17,30.1,34.527,805029,17:06:53:021
-0.0419,-0.0588,-0.0064,46.12,5,1014.19,30.1,33.98,806029,17:06:54:021
-0.0199,-0.0283,-0.0025,46.12,5,1014.2,30.1,33.651,807029,17:06:55:021
-0.0336,-0.0384,-0.0304,46.12,5,1014.27,30.1,34.585,808029,17:06:56:021
0.0214,-0.0151,-0.1167,46.12,5,1014.23,30.1,35.423,809029,17:06:57:021
0.0049,0.0112,0.039,46.12,5,1014.27,30.1,34.197,810030,17:06:58:022
0.0113,0.0421,-0.0392,46.12,5,1014.28,30.1,35.341,811029,17:06:59:021
-0.0083,-0.0202,-0.03,46.12,5,1014.28,30.1,36.152,812029,17:07:00:021
0.0606,0.0629,0.0047,46.12,5,1014.29,30.1,33.99,813029,17:07:01:021
-0.0251,-0.0694,-0.0559,46.12,5,1014.25,30.1,33.912,814030,17:07:02:022
-0.0206,0.0112,0.0431,46.12,5,1014.25,30.1,35.58,815030,17:07:03:022
-0.0486,0.0493,-0.0381,46.12,5,1014.22,30.1,35.639,816029,17:07:04:021
0.0192,-0.0082,0.021,46.12,5,1014.19,30.1,34.637,817030,17:07:05:022
-0.0276,-0.0634,0.0132,46.12,5,1014.18,30.1,35.678,818029,17:07:06:021
0.0391,0.0511,-0.0039,46.12,5,1014.16,30.1,34.812,819029,17:07:07:021
0.0167,0.0146,0.017,46.12,5,1014.16,30.1,36.785,820029,17:07:08:021
0.0651,0.0057,0.0184,46.12,5,1014.17,30.1,35.555,821029,17:07:09:021
0.0389,-0.0212,-0.0686,46.12,5,1014.19,30.1,36.965,822030,17:07:10:022
0.0016,0.0417,0.0523,46.12,5,1014.18,30.1,36.435,823029,17:07:11:021
-0.0561,-0.0192,-0.0478,46.12,5,1014.18,30,35.953,824030,17:07:12:022
0.0087,0.0985,0.0222,46.12,5,1014.2,30,35.329,825029,17:07:13:021
-0.0032,-0.0494,-0.0542,46.12,5,1014.22,30,35.38,826029,17:07:14:021
-0.0563,0.0059,-0.0113,46.12,5,1014.24,30,36.04,827029,17:07:15:021
-0.0183,-0.0018,-0.0183,46.12,5,1014.25,30,34.294,828030,17:07:16:022
-0.0526,-0.019,0.0223,46.12,5,1014.26,30,34.795,829029,17:07:17:021
-0.0388,0.0036,0.0207,46.12,5,1014.25,30,35.784,830030,17:07:18:022
-3.00E-04,-0.0338,-0.0476,46.12,5,1014.24,30,35.429,831029,17:07:19:021
-0.0181,0.0385,0.0134,46.12,5,1014.21,30,34.691,832029,17:07:20:021
-0.0086,0.0346,0.0299,46.12,5,1014.25,30,34.851,833029,17:07:21:021
-0.017,0.0093,-6.00E-04,46.12,5,1014.22,30,40.992,834029,17:07:22:021
0.0061,-0.0171,-0.0372,46.12,5,1014.22,30,34.721,835029,17:07:23:021
0.0441,6.00E-04,-0.0358,46.12,5,1014.22,30,33.857,836030,17:07:24:022
0.0676,-0.0208,0.0175,46.12,5,1014.24,30,36.018,837029,17:07:25:021
-0.0341,0.0356,0.0578,46.12,5,1014.22,30,37.503,838029,17:07:26:021
0.046,-0.0022,-0.0711,46.12,5,1014.23,30,34.243,839029,17:07:27:021
0.0388,0.0384,-0.0352,46.12,5,1014.24,30,34.702,840029,17:07:28:021
0.0261,0.006,0.012,46.12,5,1014.23,30,33.993,841030,17:07:29:022
0.0237,0.0035,0.0025,46.12,5,1014.23,30,34.286,842029,17:07:30:021
0.0219,0.0208,0.0073,46.12,5,1014.21,30,33.925,843030,17:07:31:022
-0.0209,-0.0877,-0.0228,46.12,5,1014.35,30,35.378,844029,17:07:32:021
-0.0474,-0.0311,-0.0215,46.12,5,1014.37,30,34.76,845029,17:07:33:021
3.00E-04,0.0107,-0.0069,46.12,5,1014.33,30,37.012,846029,17:07:34:021
0.0504,-0.0574,0.056,46.12,5,1014.31,30,34.177,847029,17:07:35:021
0.0063,0.004,0.0057,46.12,5,1014.29,30,34.504,848029,17:07:36:021
-0.0698,0.0714,-0.0097,46.12,5,1014.32,30,36.492,849029,17:07:37:021
0.0313,0.0569,0.0483,46.12,5,1014.3,30,36.525,850029,17:07:38:021
-0.0205,-0.0117,-0.0132,46.12,5,1014.3,30,35.522,851029,17:07:39:021
0.08,-0.0277,-0.0315,46.12,5,1014.29,30,38.553,852030,17:07:40:022
-0.035,-0.0299,-0.0371,46.12,5,1014.28,30,35.457,853030,17:07:41:022
0.0054,0.025,-0.0376,46.12,5,1014.29,29.9,36.962,854029,17:07:42:021
-0.0479,-0.0966,-0.0357,46.12,5,1014.28,29.9,38.393,855029,17:07:43:021
-0.0424,-0.0094,-0.0396,46.12,5,1014.29,29.9,35.683,856030,17:07:44:022
0.0661,-0.0093,-0.008,46.12,5,1014.28,29.9,34.793,857029,17:07:45:021
0.0538,0.0014,-0.0021,46.12,5,1014.25,29.9,35.052,858030,17:07:46:022
-0.0191,-0.0152,0.0546,46.12,5,1014.26,29.9,36.841,859029,17:07:47:021
0.0052,-0.0653,6.00E-04,46.12,5,1014.33,29.9,35.724,860029,17:07:48:021
0.0374,-0.0418,-0.013,46.12,5,1014.32,29.9,35.651,861030,17:07:49:022
-0.0055,-0.0394,-0.0546,46.12,5,1014.28,29.9,37.349,862030,17:07:50:022
0.0114,-0.0189,-0.0202,46.12,5,1014.28,29.9,35.724,863029,17:07:51:021
0.0042,0.0013,0.0096,46.12,5,1014.25,29.9,35.318,864030,17:07:52:022
0.0374,9.00E-04,-0.0671,46.12,5,1014.28,29.9,34.691,865029,17:07:53:021
0.0625,-0.035,-0.0113,46.12,5,1014.26,29.9,39.446,866029,17:07:54:021
-0.0136,-0.0427,-0.0726,46.12,5,1014.24,29.9,36.071,867030,17:07:55:022
0.0545,0.0318,-0.0518,46.12,5,1014.23,29.9,38.84,868030,17:07:56:022
-0.0028,0.0358,0.021,46.12,5,1014.21,29.9,37.27,869029,17:07:57:021
0.0033,-0.0545,-0.0038,46.12,5,1014.22,29.9,42.291,870029,17:07:58:021
-0.0306,0.0267,0.0659,46.12,5,1014.21,29.9,38.662,871029,17:07:59:021
-0.0517,0.0016,-0.0717,46.12,5,1014.22,29.9,36.59,872030,17:08:00:022
0.0166,0.035,0.013,46.12,5,1014.25,29.9,36.302,873029,17:08:01:021
0.0032,-0.0225,0.0269,46.12,5,1014.21,29.9,41.241,874030,17:08:02:022
0.0683,-0.0454,-0.0355,46.12,5,1014.22,29.8,36.813,875029,17:08:03:021
-0.0218,-0.0575,0.0382,46.12,5,1014.23,29.8,37.971,876029,17:08:04:021
-0.0555,0.021,0.0307,46.12,5,1014.21,29.8,37.076,877029,17:08:05:021
0.0022,-0.001,0.0613,46.12,5,1014.22,29.8,37.55,878029,17:08:06:021
0.0166,0.0491,-0.0076,46.12,5,1014.21,29.8,36.592,879029,17:08:07:021
-0.008,0.0355,0.0084,46.12,5,1014.21,29.8,37.49,880030,17:08:08:022
-0.057,0.0519,-0.0256,46.12,5,1014.21,29.8,35.774,881029,17:08:09:021
0.1381,-0.1962,-0.0658,46.12,5,1014.24,29.8,40.494,882030,17:08:10:022
-0.0155,0.0047,-0.0477,46.12,5,1014.23,29.8,35.346,883029,17:08:11:021
0.0142,-0.0801,-0.0285,46.12,5,1014.26,29.8,41.508,884029,17:08:12:021
-0.0745,-0.0131,-0.0268,46.12,5,1014.24,29.8,36.145,885029,17:08:13:021
0.0242,0.0147,-0.0124,46.12,5,1014.26,29.8,35.661,886029,17:08:14:021
0.0031,0.0054,-0.0159,46.12,5,1014.27,29.8,40.866,887030,17:08:15:022
-0.0181,0.0123,-0.0176,46.12,5,1014.28,29.8,35.743,888030,17:08:16:022
-0.0326,0.01,-0.0441,46.12,5,1014.25,29.8,37.126,889029,17:08:17:021
0.0076,0.0232,0.0202,46.12,5,1014.27,29.8,35.923,890029,17:08:18:021
0.0598,0.0604,-0.0606,46.12,5,1014.25,29.8,36.212,891030,17:08:19:022
-0.0075,0.0303,-0.0456,46.12,5,1014.26,29.8,37.923,892029,17:08:20:021
7.00E-04,0.0191,0.0075,46.12,5,1014.23,29.8,40.038,893029,17:08:21:021
-0.0298,-0.053,-0.0294,46.12,5,1014.2,29.8,36.57,894030,17:08:22:022
-0.0257,0.0238,-0.0655,46.12,5,1014.24,29.8,36.006,895030,17:08:23:022
-0.0243,-0.035,0.0117,46.12,5,1014.21,29.8,36.9,896029,17:08:24:021
-0.0024,0.0025,-0.0048,46.12,5,1014.23,29.8,35.509,897030,17:08:25:022
-0.0434,2.00E-04,0.0277,46.12,5,1014.23,29.7,35.463,898032,17:08:26:024
0.0031,0.0379,0.0201,46.12,5,1014.21,29.7,35.553,899030,17:08:27:022
-0.085,0.054,0.0284,46.12,5,1014.24,29.7,36.12,900029,17:08:28:021
-0.0373,0.0066,-0.0501,46.12,5,1014.23,29.7,34.449,901029,17:08:29:021
-0.0411,0.0927,-0.0336,46.12,5,1014.22,29.7,36.207,902029,17:08:30:021
0.0293,0.0605,0.0358,46.12,5,1014.24,29.7,35.482,903029,17:08:31:021
-0.0688,-0.0055,0.0325,46.12,5,1014.22,29.7,36.157,904029,17:08:32:021
0.0155,-0.0474,-0.0109,46.12,5,1014.23,29.7,36.281,905030,17:08:33:022
-0.0114,-0.0712,-0.0281,46.12,5,1014.26,29.7,35.508,906029,17:08:34:021
-4.00E-04,-0.029,-0.002,46.12,5,1014.27,29.7,36.076,907029,17:08:35:021
-0.0537,0.0453,0.0315,46.12,5,1014.26,29.7,36.365,908030,17:08:36:022
0.0398,-0.0606,-0.0812,46.12,5,1014.25,29.7,35.323,909029,17:08:37:021
-0.0277,0.0283,-4.00E-04,46.12,5,1014.25,29.7,36.227,910029,17:08:38:021
0.0082,0.0334,0.0572,46.12,5,1014.27,29.7,36.092,911029,17:08:39:021
0.0305,-0.0134,0.1008,46.12,5,1014.25,29.7,35.919,912030,17:08:40:022
-0.0266,-0.024,0.0347,46.12,5,1014.27,29.7,35.488,913029,17:08:41:021
-0.0443,-0.076,0.0146,46.12,5,1014.27,29.7,35.844,914030,17:08:42:022
0.02,0.0264,0.0363,46.12,5,1014.27,29.7,35.356,915029,17:08:43:021
0.0109,0.016,0.0317,46.12,5,1014.28,29.7,37.612,916029,17:08:44:021
-0.0156,-0.0398,0.0015,46.12,5,1014.28,29.7,35.172,917029,17:08:45:021
-0.06,0.051,0.0719,46.12,5,1014.29,29.7,35.049,918030,17:08:46:022
0.0071,0.0116,0.0432,46.12,5,1014.29,29.7,37.779,919029,17:08:47:021
0.0231,-0.003,0.0827,46.12,5,1014.28,29.7,37.254,920029,17:08:48:021
-0.0313,-0.0184,-0.0508,46.12,5,1014.3,29.7,37.147,921030,17:08:49:022
-0.015,0.005,0.0074,46.12,5,1014.29,29.7,37.631,922029,17:08:50:021
-0.0095,0.0071,0.0242,46.12,5,1014.31,29.6,35.697,923029,17:08:51:021
-0.0461,-0.0112,0.0466,46.12,5,1014.32,29.6,38.192,924029,17:08:52:021
-0.0668,-0.0195,-0.0036,46.12,5,1014.31,29.6,37.11,925030,17:08:53:022
-0.0752,0.0495,-0.0286,46.12,5,1014.3,29.6,38.23,926029,17:08:54:021
0.0048,-0.0357,0.0374,46.12,5,1014.31,29.6,38.164,927030,17:08:55:022
0.032,-0.0043,-0.0545,46.12,5,1014.31,29.6,35.985,928029,17:08:56:021
-0.0346,0.0359,0.0109,46.12,5,1014.31,29.6,36.393,929029,17:08:57:021
9.00E-04,1.00E-04,-0.0433,46.12,5,1014.31,29.6,35.61,930029,17:08:58:021
-0.0112,-4.00E-04,0.0416,46.12,5,1014.29,29.6,37.149,931029,17:08:59:021
0.0144,0.006,-0.0079,46.12,5,1014.28,29.6,41.31,932029,17:09:00:021
0.0325,0.0222,-0.0228,46.12,5,1014.28,29.6,41.455,933030,17:09:01:022
-0.0048,0.005,-0.0184,46.12,5,1014.27,29.6,36.406,934029,17:09:02:021
-0.0062,-0.0194,0.0083,46.12,5,1014.29,29.6,38.415,935029,17:09:03:021
0.0181,-0.0167,0.0594,46.12,5,1014.29,29.6,37.644,936030,17:09:04:022
0.0469,-0.062,-0.0503,46.12,5,1014.27,29.6,36.427,937029,17:09:05:021
-0.0478,0.056,0.0243,46.12,5,1014.27,29.6,37.476,938029,17:09:06:021
0.0077,-0.0028,0.0389,46.12,5,1014.25,29.6,35.949,939030,17:09:07:022
-0.0142,0.0078,-0.0081,46.12,5,1014.28,29.6,35.862,940029,17:09:08:021
-0.0013,-0.0028,-0.037,46.12,5,1014.27,29.6,36.878,941029,17:09:09:021
-0.0184,-0.0079,-0.031,46.12,5,1014.28,29.6,36.879,942030,17:09:10:022
-0.0665,1.00E-04,0.0297,46.12,5,1014.26,29.6,35.291,943030,17:09:11:022
0.0838,0.0015,0.0019,46.12,5,1014.28,29.6,36.001,944030,17:09:12:022
-0.0225,-0.0157,0.0204,46.12,5,1014.29,29.6,36.288,945029,17:09:13:021
0.0406,-0.0084,-0.0097,46.12,5,1014.28,29.6,35.577,946029,17:09:14:021
0.013,0.0015,-0.0462,46.12,5,1014.28,29.6,35.214,947029,17:09:15:021
-0.0053,-0.024,5.00E-04,46.12,5,1014.28,29.6,35.89,948029,17:09:16:021
0.0381,-0.0235,-0.0306,46.12,5,1014.29,29.6,36.51,949029,17:09:17:021
-0.0544,0.0151,0.0484,46.12,5,1014.29,29.5,35.68,950029,17:09:18:021
-0.0248,0.0334,0.0933,46.12,5,1014.29,29.5,35.508,951030,17:09:19:022
0.0098,-0.0348,0.0164,46.12,5,1014.28,29.5,35.652,952029,17:09:20:021
-5.00E-04,0.0133,0.063,46.12,5,1014.3,29.5,34.701,953030,17:09:21:022
-0.0341,-0.0073,0.0373,46.12,5,1014.29,29.5,34.756,954029,17:09:22:021
0.0345,0.0039,-0.0433,46.12,5,1014.31,29.5,35.334,955029,17:09:23:021
0.0328,0.0293,0.0322,46.12,5,1014.29,29.5,35.599,956029,17:09:24:021
0.0444,-0.0139,-0.0083,46.12,5,1014.3,29.5,34.298,957029,17:09:25:021
-0.0264,-0.0337,-0.0321,46.12,5,1014.3,29.5,35.863,958029,17:09:26:021
9.00E-04,0.0173,-0.0028,46.12,5,1014.28,29.5,35.566,959029,17:09:27:021
-0.0352,-0.0385,8.00E-04,46.12,5,1014.29,29.5,36.916,960030,17:09:28:022
0.0608,-0.0276,-0.0604,46.12,5,1014.29,29.5,36.403,961030,17:09:29:022
-0.0413,-0.0066,0.0116,46.12,5,1014.27,29.5,37.306,962030,17:09:30:022
-0.0463,0.0229,-0.0181,46.12,5,1014.27,29.5,37.484,963029,17:09:31:021
0.0479,-0.0094,0.0038,46.12,5,1014.28,29.5,35.343,964029,17:09:32:021
0.0436,-0.0402,0.0204,46.12,5,1014.31,29.5,35.798,965029,17:09:33:021
0.0427,-0.0089,0.0586,46.12,5,1014.28,29.5,35.765,966029,17:09:34:021
0.0432,-0.0184,-0.093,46.12,5,1014.31,29.5,36.913,967030,17:09:35:022
-0.0186,0.0041,0.0093,46.12,5,1014.3,29.5,35.178,968029,17:09:36:021
-0.0381,-0.0025,0.0146,46.12,5,1014.31,29.5,35.702,969029,17:09:37:021
0.0125,0.0354,0.0666,46.12,5,1014.27,29.5,36.925,970029,17:09:38:021
-0.017,0.0742,0.0365,46.12,5,1014.28,29.5,37.757,971030,17:09:39:022
-0.0043,0.0711,-0.0332,46.12,5,1014.27,29.5,36.311,972029,17:09:40:021
-0.0013,0.0164,0.0094,46.12,5,1014.29,29.5,37.493,973030,17:09:41:022
-0.0628,0.0053,0.0549,46.12,5,1014.29,29.5,38.585,974029,17:09:42:021
0.044,0.0179,-0.0105,46.12,5,1014.3,29.5,35.518,975029,17:09:43:021
0.0664,0.0017,0.027,46.12,5,1014.27,29.4,36.967,976030,17:09:44:022
0.0095,-0.0174,-0.0291,46.12,5,1014.3,29.4,34.905,977030,17:09:45:022
0.039,0.0318,-0.0586,46.12,5,1014.28,29.4,36.232,978029,17:09:46:021
-0.0421,-5.00E-04,0.0568,46.12,5,1014.31,29.4,37.014,979029,17:09:47:021
0.0309,-0.0041,-0.0041,46.12,5,1014.29,29.4,35.732,980029,17:09:48:021
-0.0372,-0.0084,-0.0191,46.12,5,1014.28,29.4,35.778,981029,17:09:49:021
-0.0264,0.0233,0.067,46.12,5,1014.28,29.4,35.976,982030,17:09:50:022
0.0179,0.0015,-0.0276,46.12,5,1014.29,29.4,35.421,983029,17:09:51:021
0.0348,-0.0395,-0.0632,46.12,5,1014.3,29.4,35.121,984029,17:09:52:021
0.0722,-0.0591,0.0109,46.12,5,1014.29,29.4,35.333,985029,17:09:53:021
0.0428,0.0259,-0.0589,46.12,5,1014.31,29.4,35.644,986029,17:09:54:021
-0.0525,-0.0234,-0.0628,46.12,5,1014.3,29.4,35.016,987029,17:09:55:021
0.0505,-0.0575,-0.0139,46.12,5,1014.29,29.4,36.437,988029,17:09:56:021
-0.0316,-0.0268,-0.0813,46.12,5,1014.3,29.4,35.91,989029,17:09:57:021
0.0015,-0.0842,0.0172,46.12,5,1014.3,29.4,37.983,990029,17:09:58:021
-0.0047,-0.0527,-0.092,46.12,5,1014.28,29.4,35.911,991029,17:09:59:021
-0.007,0.0304,-0.0301,46.12,5,1014.26,29.4,36.085,992029,17:10:00:021
-0.0799,-0.0266,0.0451,46.12,5,1014.28,29.4,34.624,993029,17:10:01:021
-0.054,0.0425,-0.031,46.12,5,1014.29,29.4,37.698,994030,17:10:02:022
0.013,0.0329,0.0916,46.12,5,1014.29,29.4,37.762,995029,17:10:03:021
-0.0061,-0.0317,0.0346,46.12,5,1014.29,29.4,35.761,996030,17:10:04:022
-0.0311,0.0296,-0.0318,46.12,5,1014.3,29.4,34.653,997030,17:10:05:022
-0.0238,0.0087,0.0537,46.12,5,1014.29,29.4,39.19,998029,17:10:06:021
0.0177,-0.0068,-4.00E-04,46.12,5,1014.29,29.4,33.692,999030,17:10:07:022
-0.0107,0.0078,0.0327,46.12,5,1014.29,29.4,35.572,1000029,17:10:08:021
-0.0054,-0.0376,-0.0017,46.12,5,1014.3,29.4,34.976,1001030,17:10:09:022
-0.0081,0.0394,0.0354,46.12,5,1014.3,29.4,36.729,1002029,17:10:10:021
0.0213,-0.0206,0.0113,46.12,5,1014.31,29.4,32.704,1003029,17:10:11:021
0.0131,8.00E-04,0.0608,46.12,5,1014.29,29.4,32.899,1004029,17:10:12:021
-0.0211,0.0497,-0.0262,46.12,5,1014.31,29.4,36.657,1005030,17:10:13:022
-0.0062,0.0021,-0.0656,46.12,5,1014.32,29.4,33.419,1006029,17:10:14:021
0.0226,-0.0164,-0.0644,46.12,5,1014.3,29.4,33.258,1007029,17:10:15:021
-0.079,0.0055,0.0552,46.12,5,1014.32,29.4,35.576,1008029,17:10:16:021
-0.0451,0.02,9.00E-04,46.12,5,1014.32,29.4,33.783,1009029,17:10:17:021
-0.0243,-0.0278,-0.043,46.12,5,1014.32,29.4,34.63,1010029,17:10:18:021
-0.0377,0.0229,-0.0307,46.12,5,1014.33,29.4,33.525,1011030,17:10:19:022
0.0393,0.0398,-0.0031,46.12,5,1014.32,29.4,32.376,1012029,17:10:20:021
-0.0185,0.0123,0.0346,46.12,5,1014.3,29.3,37.092,1013030,17:10:21:022
0.0339,-0.0282,-0.0392,46.12,5,1014.31,29.3,37.294,1014029,17:10:22:021
-0.0422,-4.00E-04,-0.041,46.12,5,1014.3,29.3,33.222,1015029,17:10:23:021
0.0024,0.0011,-0.0288,46.12,5,1014.3,29.3,35.481,1016030,17:10:24:022
0.0442,-0.0013,0.0281,46.12,5,1014.28,29.3,33.101,1017029,17:10:25:021
0.0411,-0.0175,-0.038,46.12,5,1014.27,29.3,33.853,1018030,17:10:26:022
0.0217,-0.0162,0.0396,46.12,5,1014.29,29.3,34.472,1019029,17:10:27:021
0.007,-0.0233,0.0204,46.12,5,1014.31,29.3,34.996,1020029,17:10:28:021
-0.0155,-0.0108,-0.0579,46.12,5,1014.29,29.3,33.465,1021029,17:10:29:021
0.0274,0.025,-0.0411,46.12,5,1014.31,29.3,34.474,1022030,17:10:30:022
0.0056,0.0094,-0.0648,46.12,5,1014.28,29.3,33.879,1023029,17:10:31:021
0.0065,-0.04,0.0018,46.12,5,1014.28,29.3,36.644,1024029,17:10:32:021
-0.0434,0.0291,0.0154,46.12,5,1014.28,29.3,35.792,1025029,17:10:33:021
-0.0121,-0.0393,0.0018,46.12,5,1014.26,29.3,36.932,1026029,17:10:34:021
-0.0012,0.0031,0.0778,46.12,5,1014.3,29.3,36.638,1027029,17:10:35:021
-0.012,-0.0109,-0.0362,46.12,5,1014.3,29.3,35.156,1028030,17:10:36:022
-0.052,9.00E-04,0.0266,46.12,5,1014.28,29.3,36.239,1029029,17:10:37:021
0.0015,9.00E-04,0.0383,46.12,5,1014.27,29.3,35.795,1030029,17:10:38:021
0.0371,-0.0116,0.0415,46.12,5,1014.29,29.3,36.277,1031029,17:10:39:021
0.0263,-0.0093,0.0488,46.12,5,1014.28,29.3,34.979,1032029,17:10:40:021
-0.022,0.036,-0.09,46.12,5,1014.3,29.3,35.497,1033029,17:10:41:021
0.0119,-0.0122,0.0173,46.12,5,1014.31,29.3,35.833,1034029,17:10:42:021
-0.0038,-0.0849,-0.0112,46.12,5,1014.28,29.3,35.556,1035029,17:10:43:021
-0.0113,-0.0102,0.0473,46.12,5,1014.28,29.3,35.468,1036029,17:10:44:021
-0.0127,-0.0185,-0.0152,46.12,5,1014.27,29.3,35.706,1037029,17:10:45:021
0.0123,0.0092,-0.0027,46.12,5,1014.29,29.3,35.674,1038029,17:10:46:021
-1.00E-04,0.0118,0.0787,46.12,5,1014.27,29.3,35.293,1039030,17:10:47:022
0.0238,0.0182,0.0272,46.12,5,1014.29,29.3,35.567,1040030,17:10:48:022
-0.0223,0.0512,-0.0399,46.12,5,1014.3,29.3,35.25,1041029,17:10:49:021
-8.00E-04,-0.0102,0.0287,46.12,5,1014.28,29.3,35.005,1042029,17:10:50:021
0.0039,0.0143,0.046,46.12,5,1014.29,29.3,37.547,1043029,17:10:51:021
0.0418,-0.0392,0.0166,46.12,5,1014.31,29.3,35.561,1044029,17:10:52:021
-0.0342,0.01,-0.0162,46.12,5,1014.3,29.3,35.818,1045030,17:10:53:022
0.0225,0.0269,0.0372,46.12,5,1014.32,29.3,41.722,1046029,17:10:54:021
0.0041,-0.0959,-0.0682,46.12,5,1014.32,29.3,34.855,1047029,17:10:55:021
-0.0104,-0.0231,0.0332,46.12,5,1014.32,29.3,35.543,1048029,17:10:56:021
-0.0711,-4.00E-04,-0.0141,46.12,5,1014.31,29.3,35.05,1049029,17:10:57:021
0.0219,0.0128,-0.0137,46.12,5,1014.3,29.2,35.92,1050029,17:10:58:021
-0.0467,0.0145,0.0748,46.12,5,1014.31,29.2,41.416,1051031,17:10:59:023
0.0143,-0.0412,-0.0114,46.12,5,1014.32,29.2,33.822,1052030,17:11:00:022
-0.0148,0.0562,0.0408,46.12,5,1014.32,29.2,33.127,1053030,17:11:01:022
-0.0139,0.0362,-0.0254,46.12,5,1014.34,29.2,32.604,1054029,17:11:02:021
0.0626,-0.0315,0.0356,46.12,5,1014.33,29.2,34.759,1055029,17:11:03:021
-0.0025,0.043,-0.021,46.12,5,1014.32,29.2,38.759,1056029,17:11:04:021
-0.0215,-5.00E-04,-0.0246,46.12,5,1014.32,29.2,33.79,1057029,17:11:05:021
0.0435,-0.0197,0.0449,46.12,5,1014.33,29.2,35.147,1058029,17:11:06:021
0.0138,-1.00E-04,-0.0201,46.12,5,1014.32,29.2,33.783,1059030,17:11:07:022
-0.037,0.0333,0.0321,46.12,5,1014.32,29.2,34.028,1060029,17:11:08:021
-0.0633,-0.0248,-0.1191,46.12,5,1014.34,29.2,33.865,1061029,17:11:09:021
0.0036,0.025,0.0273,46.12,5,1014.35,29.2,34.144,1062029,17:11:10:021
-0.2815,-0.3358,0.5097,26.6,5,1014.35,29.2,33.853,1063030,17:11:11:022
-0.1319,0.061,-1.7486,15.28,5,1014.45,29.2,51.088,1064029,17:11:12:021
0.0572,0.0026,-0.0205,66.22,5,1015.42,29.2,32.846,1065029,17:11:13:021
0.0123,0.0135,-0.0549,66.22,5,1015.59,29.3,35.32,1066029,17:11:14:021
-0.0275,-0.0072,0.0972,66.22,5,1015.57,29.4,38.257,1067029,17:11:15:021
-0.0584,-0.0126,0.0035,66.22,5,1015.48,29.6,36.151,1068029,17:11:16:021
0.0416,0.0681,0.0501,66.22,5,1015.47,29.6,36.114,1069029,17:11:17:021
0.0512,-0.0269,0.0936,66.22,5,1015.25,29.7,35.451,1070029,17:11:18:021
0.0307,-0.0149,0.0639,66.22,5,1015.03,29.7,35.705,1071029,17:11:19:021
-0.021,-0.0919,0.0067,66.22,5,1015.11,29.8,35.202,1072029,17:11:20:021
0.0774,-0.0236,0.0493,66.22,5,1015.23,29.8,36.391,1073029,17:11:21:021
0.039,-0.0427,-0.0643,66.22,5,1015.24,29.9,37.627,1074029,17:11:22:021
-0.0192,0.0828,-0.9211,66.22,5,1015.03,29.9,36.851,1075030,17:11:23:022
0.0046,0.0023,0.118,66.22,5,1015.16,30,38.5,1076029,17:11:24:021
0.0334,0.0262,0.1243,66.22,5,1015.1,30,36.577,1077029,17:11:25:021
0.0431,0.0161,0.0025,66.22,5,1014.93,30.1,38.317,1078030,17:11:26:022
0.0345,0.0108,0.838,66.22,5,1014.8,30.1,39.377,1079029,17:11:27:021
0.0165,-0.0273,0.2022,66.22,5,1015.04,30.1,39.391,1080029,17:11:28:021
-0.0229,-0.0066,0.0044,66.22,5,1015.6,30.1,37.733,1081029,17:11:29:021
-0.0128,0.1661,-0.0818,51.22,5,1015.7,30.2,46.006,1082029,17:11:30:021
-0.0472,0.0219,0.019,56.6,5,1015.49,30.4,36.366,1083029,17:11:31:021
0.0364,0.0119,-0.0025,56.6,5,1015.22,30.4,37.201,1084030,17:11:32:022
-0.0256,0.0642,-0.0538,56.6,5,1015.08,30.5,34.655,1085032,17:11:33:024
0.0233,0.0241,0.0399,56.6,5,1015.01,30.5,35.657,1086029,17:11:34:021
0.0778,0.0076,0.0368,56.6,5,1014.92,30.5,35.317,1087029,17:11:35:021
-0.0053,-0.072,0.0152,56.6,5,1014.84,30.5,34.751,1088031,17:11:36:023
0.0154,0.0246,0.0439,56.6,5,1014.78,30.6,34.423,1089029,17:11:37:021
0.0038,0.0175,0.0027,56.6,5,1014.73,30.6,35.256,1090030,17:11:38:022
0.0218,-0.024,-0.0263,56.6,5,1014.73,30.6,33.469,1091029,17:11:39:021
0.0137,0.0073,0.1038,56.6,5,1014.92,30.6,35.597,1092029,17:11:40:021
0.0213,-0.0259,0.0349,56.6,5,1014.92,30.7,35.593,1093029,17:11:41:021
-0.0026,-0.0122,0.0703,56.6,5,1014.79,30.8,34.904,1094029,17:11:42:021
0.0622,-0.0304,-0.0119,56.6,5,1014.74,30.8,35.355,1095029,17:11:43:021
-0.0171,-0.0106,0.0719,56.6,5,1014.7,30.8,33.787,1096030,17:11:44:022
-0.04,0.0439,-0.0126,10.18,5,1014.68,30.8,34.213,1097029,17:11:45:021
-0.0398,-0.0466,0.0193,50.09,5,1015.05,30.8,35.45,1098029,17:11:46:021
0.0335,0.0591,0.0297,10.47,5,1015.1,30.9,34.609,1099029,17:11:47:021
0.0035,-0.0141,0.0865,51.78,5,1015,31,34.981,1100030,17:11:48:022
-0.0241,-0.0159,-0.0142,11.03,5,1015.05,31,34.907,1101029,17:11:49:021
-0.0208,0.003,0.0314,49.24,5,1015.04,31.1,35.889,1102029,17:11:50:021
0.1543,0.1503,-0.0804,49.24,5,1015.01,31.1,38.482,1103029,17:11:51:021
0.0342,0.0136,0.0589,42.45,5,1014.86,31.2,35.292,1104029,17:11:52:021
0.0156,6.00E-04,1.00E-04,30.28,5,1014.77,31.2,35.01,1105029,17:11:53:021
-0.0098,-0.0095,-0.0367,49.52,5,1014.71,31.2,39.974,1106030,17:11:54:022
0.1623,0.0329,-0.0623,49.52,5,1014.88,31.2,36.016,1107028,17:11:55:020
0.0504,-0.0185,0.0307,49.52,5,1015.02,31.2,35.058,1108029,17:11:56:021
-0.0013,0.0048,-0.0982,49.52,5,1014.97,31.2,35.475,1109029,17:11:57:021
0.0582,-0.1939,-0.0478,49.52,5,1014.89,31.2,37.599,1110029,17:11:58:021
0.986,-0.1018,0.2328,49.52,5,1014.93,31.3,36.382,1111029,17:11:59:021
-0.0136,-0.3504,0.4461,49.52,5,1014.8,31.3,38.927,1112030,17:12:00:022
3.00E-04,0.1501,0.0043,49.52,5,1014.66,31.4,39.856,1113029,17:12:01:021
0.0881,0.0593,0.0215,49.52,5,1014.57,31.4,37.641,1114029,17:12:02:021
0.1048,-0.0445,-0.0387,49.52,5,1014.52,31.3,37.67,1115029,17:12:03:021
-0.0067,0.0072,0.0569,49.52,5,1014.44,31.3,38.216,1116029,17:12:04:021
-0.0199,-0.0102,-0.0232,49.52,5,1014.4,31.3,37.212,1117029,17:12:05:021
0.0151,0.0212,-0.0129,49.52,5,1014.4,31.3,35.332,1118029,17:12:06:021
-0.0205,-0.0144,0.0414,49.52,5,1014.38,31.3,39.879,1119029,17:12:07:021
7.00E-04,-0.0629,-0.0146,49.52,5,1014.43,31.3,33.496,1120029,17:12:08:021
-0.0894,-0.0319,0.015,49.52,5,1014.51,31.3,39.318,1121029,17:12:09:021
0.0482,-0.0162,0.001,49.52,5,1014.47,31.3,33.201,1122029,17:12:10:021
-0.031,0.0482,-0.0272,49.52,5,1014.46,31.3,32.429,1123029,17:12:11:021
-0.0156,0.0144,0.0248,49.52,5,1014.56,31.4,33.002,1124029,17:12:12:021
-4.00E-04,-0.0417,-0.0545,49.52,5,1014.61,31.4,34.535,1125029,17:12:13:021
-0.0078,-0.0071,-0.0336,49.52,5,1014.52,31.4,34.478,1126029,17:12:14:021
0.0227,0.0415,0.0129,49.52,5,1014.47,31.4,35.01,1127029,17:12:15:021
0.0265,-0.0303,0.0242,49.52,5,1014.6,31.4,38.382,1128029,17:12:16:021
0.0133,-0.016,-0.0379,49.52,5,1014.98,31.4,42.299,1129029,17:12:17:021
0.0329,-0.0139,-0.0283,49.52,5,1015.09,31.4,39.771,1130029,17:12:18:021
0.0197,0.0367,-0.0372,49.52,5,1015.07,31.5,38.43,1131029,17:12:19:021
-0.0483,0.0265,0.0876,49.52,5,1014.98,31.6,35.884,1132029,17:12:20:021
0.0045,-0.0259,-0.013,49.52,5,1014.8,31.6,35.526,1133029,17:12:21:021
-0.0273,-0.0487,-0.0153,49.52,5,1014.65,31.6,35.854,1134029,17:12:22:021
-0.0108,0.0385,-0.0114,49.52,5,1014.53,31.6,33.287,1135029,17:12:23:021
-0.0343,-0.0165,-0.0201,49.52,5,1014.45,31.6,34.064,1136029,17:12:24:021
0.005,0.0147,-0.0247,49.52,5,1014.52,31.6,35.367,1137029,17:12:25:021
-0.056,-0.0206,0.0254,49.52,5,1014.55,31.6,33.45,1138029,17:12:26:021
0.0488,-0.0252,-0.0336,49.52,5,1014.54,31.7,43.054,1139029,17:12:27:021
0.0157,0.0292,-0.017,49.52,5,1014.64,31.7,39.451,1140029,17:12:28:021
0.0313,0.022,-0.0073,49.52,5,1014.51,31.7,43.123,1141030,17:12:29:022
-0.0223,0.0048,-0.0442,49.52,5,1014.47,31.7,35.752,1142029,17:12:30:021
-0.0746,0.0251,0.0112,49.52,5,1014.5,31.7,41.355,1143029,17:12:31:021
-0.0212,0.0233,-0.0139,49.52,5,1014.5,31.7,35.532,1144029,17:12:32:021
-0.0056,-0.0089,-0.0306,49.52,5,1014.45,31.8,35.363,1145029,17:12:33:021
-0.0605,0.0048,-0.0067,49.52,5,1014.47,31.8,35.599,1146029,17:12:34:021
0.0045,0.0469,-0.0335,49.52,5,1014.44,31.8,38.096,1147029,17:12:35:021
0.0269,0.0125,0.0806,49.52,5,1014.5,31.8,54.862,1148029,17:12:36:021
0.0038,-0.0089,0.0558,49.52,5,1014.43,31.8,35.24,1149029,17:12:37:021
-0.0279,-0.0116,-0.0076,49.52,5,1014.42,31.8,35.1,1150030,17:12:38:022
0.0607,7.00E-04,0.0202,49.52,5,1014.43,31.8,33.948,1151029,17:12:39:021
-0.0344,0.0419,0.0196,49.52,5,1014.45,31.8,36.868,1152029,17:12:40:021
-0.0617,0.04,0.04,49.52,5,1014.4,31.8,37.406,1153029,17:12:41:021
-0.0533,0.0146,-0.0582,49.52,5,1014.49,31.8,34.864,1154029,17:12:42:021
-0.0034,0.0274,6.00E-04,49.52,5,1014.46,31.8,36.234,1155029,17:12:43:021
0.0117,0.0221,0.0342,49.52,5,1014.42,31.8,37.248,1156029,17:12:44:021
0.042,0.0491,0.046,49.52,5,1014.44,31.8,37.547,1157029,17:12:45:021
0.0086,0.028,-0.0402,49.52,5,1014.36,31.8,35.802,1158029,17:12:46:021
-0.0157,-0.017,-0.0078,49.52,5,1014.4,31.8,35.544,1159030,17:12:47:022
-0.028,-0.0146,0.0378,49.52,5,1014.4,31.8,34.019,1160029,17:12:48:021
0.0224,-0.0913,-0.0482,51.5,5,1014.89,31.8,35.174,1161029,17:12:49:021
-0.0572,0.0117,-0.0139,51.5,5,1015.03,31.8,35.896,1162029,17:12:50:021
0.0197,0.0238,0.0854,51.5,5,1014.74,31.9,35.243,1163030,17:12:51:022
-0.0506,0.0131,0.0374,51.5,5,1014.47,31.8,36.098,1164030,17:12:52:022
0.0679,0.0122,0.0324,51.5,5,1014.18,31.8,37.904,1165029,17:12:53:021
0.005,-0.0054,0.0039,51.5,5,1014.06,31.8,34.802,1166030,17:12:54:022
0.0457,-0.0051,-3.00E-04,51.5,5,1013.94,31.7,36.682,1167030,17:12:55:022
-0.0127,-0.0344,0.025,51.5,5,1013.83,31.7,36.89,1168029,17:12:56:021
-0.0821,-0.027,-0.0357,51.5,5,1013.73,31.6,35.832,1169030,17:12:57:022
0.0379,-0.0343,0.0146,51.5,5,1013.68,31.5,35.83,1170029,17:12:58:021
0.0055,-0.0019,-0.0784,51.5,5,1013.66,31.5,36.01,1171029,17:12:59:021
0.0029,0.0111,-0.0214,51.5,5,1013.67,31.4,37.702,1172029,17:13:00:021
-0.061,0.0031,-0.0235,51.5,5,1013.67,31.4,36.398,1173030,17:13:01:022
0.0306,0.0398,-0.0561,51.5,5,1013.69,31.3,40.139,1174029,17:13:02:021
-0.0044,-0.0168,0.0571,51.5,5,1013.69,31.3,39.889,1175029,17:13:03:021
0.0287,0.0172,0.0083,51.5,5,1013.73,31.2,39.075,1176029,17:13:04:021
0.0071,-0.0641,-0.0507,51.5,5,1013.75,31.2,35.473,1177029,17:13:05:021
0.0352,-0.0046,-0.0078,51.5,5,1013.81,31.1,36.655,1178030,17:13:06:022
-0.062,0.0276,-0.0189,51.5,5,1013.82,31.1,37.466,1179029,17:13:07:021
-0.0205,0.0112,0.0468,51.5,5,1013.83,31,35.829,1180029,17:13:08:021
-0.0127,-0.0177,-0.0062,51.5,5,1013.85,31,36.289,1181030,17:13:09:022
0.0635,-0.0068,-0.0252,51.5,5,1013.87,31,35.386,1182029,17:13:10:021
-0.0136,-0.037,0.0201,51.5,5,1013.9,30.9,36.889,1183029,17:13:11:021
-0.0127,-0.044,-0.0119,51.5,5,1013.93,30.9,38.213,1184029,17:13:12:021
0.0655,-0.0332,-0.0017,51.5,5,1013.96,30.9,34.34,1185029,17:13:13:021
-0.0337,0.0012,-0.0096,51.5,5,1013.99,30.8,34.442,1186029,17:13:14:021
0.0678,0.0118,0.0625,51.5,5,1014,30.8,35.077,1187029,17:13:15:021
-0.0573,-0.006,-0.0265,51.5,5,1014.04,30.8,33.513,1188029,17:13:16:021
0.0139,-0.0199,0.0822,51.5,5,1014.5,30.8,34.721,1189029,17:13:17:021
0.0293,0.0114,0.06,51.5,5,1014.43,30.8,33.741,1190030,17:13:18:022
-0.0021,0.0457,0.0025,51.5,5,1014.31,30.8,34.401,1191029,17:13:19:021
0.0174,0.0141,0.0154,51.5,5,1014.23,30.8,32.351,1192029,17:13:20:021
0.0181,-0.0328,0.0598,51.5,5,1014.17,30.8,31.826,1193029,17:13:21:021
0.0271,0.045,0.0037,51.5,5,1014.19,30.7,33.582,1194029,17:13:22:021
0.0148,-0.008,0.0809,51.5,5,1014.18,30.7,35.176,1195029,17:13:23:021
0.0048,-0.022,-0.0289,51.5,5,1014.14,30.7,33.777,1196030,17:13:24:022
-0.0025,0.0179,0.0738,51.5,5,1014.1,30.7,31.82,1197030,17:13:25:022
-0.0178,-0.0046,0.0496,51.5,5,1014.11,30.7,33.783,1198029,17:13:26:021
-0.0183,-0.0066,-0.0099,51.5,5,1014.09,30.7,32.688,1199029,17:13:27:021
0.0512,7.00E-04,-0.0088,51.5,5,1014.09,30.6,35.373,1200030,17:13:28:022
0.0132,-0.0045,-0.007,51.5,5,1014.08,30.6,34.266,1201029,17:13:29:021
0.0119,-0.0173,0.0482,51.5,5,1014.08,30.6,36.509,1202029,17:13:30:021
-0.0089,0.0304,0.0378,51.5,5,1014.08,30.6,34.842,1203029,17:13:31:021
-0.0204,0.0481,0.075,51.5,5,1014.12,30.5,43.853,1204029,17:13:32:021
-0.0339,-0.0181,0.0241,51.5,5,1014.22,30.5,35.382,1205029,17:13:33:021
-0.0016,-0.0016,0.0481,51.5,5,1014.19,30.5,45.034,1206030,17:13:34:022
-0.0525,-0.0135,-0.0623,51.5,5,1014.19,30.5,36.742,1207030,17:13:35:022
0.0161,-0.0093,-0.0411,51.5,5,1014.18,30.5,35.615,1208029,17:13:36:021
-0.0247,-0.0564,-0.0399,51.5,5,1014.16,30.5,39.061,1209029,17:13:37:021
0.0078,-0.0741,-0.0498,51.5,5,1014.17,30.5,36.46,1210029,17:13:38:021
0.027,0.0129,-0.026,51.5,5,1014.18,30.5,35.383,1211029,17:13:39:021
-0.0246,0.0258,-0.0095,51.5,5,1014.17,30.4,37.679,1212029,17:13:40:021
-0.049,0.0162,0.0055,51.5,5,1014.17,30.4,39.218,1213030,17:13:41:022
0.015,0.0325,0.016,51.5,5,1014.13,30.4,61.224,1214029,17:13:42:021
-0.0144,-0.0419,0.0244,51.5,5,1014.14,30.4,53.529,1215029,17:13:43:021
-0.0107,0.0043,0.0547,51.5,5,1014.14,30.4,52.114,1216029,17:13:44:021
-0.0099,0.004,0.0076,51.5,5,1014.16,30.4,43.536,1217029,17:13:45:021
0.047,-0.0089,-0.0071,51.5,5,1014.18,30.4,52.491,1218029,17:13:46:021
-0.0245,-0.0411,-0.0014,51.5,5,1014.16,30.3,54.746,1219029,17:13:47:021
0.0166,-0.0823,0.0126,51.5,5,1014.19,30.3,36.775,1220029,17:13:48:021
-0.0562,0.0442,0.04,51.5,5,1014.19,30.3,47.498,1221030,17:13:49:022
0.0252,0.0379,0.0682,51.5,5,1014.42,30.3,36.574,1222029,17:13:50:021
-0.0116,-0.0095,-0.0481,51.5,5,1014.69,30.3,35.265,1223029,17:13:51:021
0.0202,0.0087,0.0144,51.5,5,1014.82,30.4,40.306,1224029,17:13:52:021
-0.004,0.0259,-0.0584,51.5,5,1014.65,30.4,39.206,1225029,17:13:53:021
-0.0426,0.0104,0.0386,51.5,5,1014.49,30.4,39.29,1226030,17:13:54:022
0.0234,0.0308,0.0259,51.5,5,1014.39,30.4,34.773,1227030,17:13:55:022
0.0983,-0.0803,-0.0427,51.5,5,1014.3,30.4,43.837,1228029,17:13:56:021
0.0238,0.0477,0.0603,51.5,5,1014.23,30.4,43.233,1229029,17:13:57:021
-0.0605,0.0135,0.0474,51.5,5,1014.18,30.4,35.945,1230030,17:13:58:022
-0.0788,0.0624,-0.0182,51.5,5,1014.15,30.4,39.591,1231030,17:13:59:022
0.0745,-0.051,-0.03,51.5,5,1014.11,30.3,36.911,1232030,17:14:00:022
-0.0274,0.0066,0.0437,51.5,5,1014.12,30.3,36.681,1233029,17:14:01:021
0.0171,0.0257,0.0105,51.5,5,1014.14,30.3,36.496,1234029,17:14:02:021
-0.0495,-0.0039,0.0503,51.5,5,1014.14,30.3,33.549,1235030,17:14:03:022
0.0519,-0.039,0.0534,51.5,5,1014.15,30.3,39.051,1236029,17:14:04:021
-5.00E-04,0.0437,0.0107,51.5,5,1014.16,30.3,36.378,1237029,17:14:05:021
-0.0021,0.0373,-0.0311,51.5,5,1014.18,30.3,38.463,1238029,17:14:06:021
0.0667,-0.0182,-0.0469,51.5,5,1014.19,30.2,34.103,1239029,17:14:07:021
0.0235,-0.013,0.0188,51.5,5,1014.2,30.2,36.432,1240029,17:14:08:021
0.0426,-0.0086,-0.0085,51.5,5,1014.19,30.2,35.709,1241030,17:14:09:022
0.0201,-0.053,-0.0115,51.5,5,1014.19,30.2,32.556,1242029,17:14:10:021
-0.0082,0.0791,0.0231,51.5,5,1014.21,30.2,35.743,1243030,17:14:11:022
0.0092,0.0083,0.0099,51.5,5,1014.22,30.2,35.68,1244030,17:14:12:022
-0.0207,0.0044,0.0042,51.5,5,1014.22,30.2,35.936,1245029,17:14:13:021
0.0136,-0.0171,-0.0447,51.5,5,1014.22,30.2,35.366,1246029,17:14:14:021
-0.0398,-0.0316,0.0083,51.5,5,1014.23,30.2,36.637,1247030,17:14:15:022
-0.0073,-0.0055,-0.0321,51.5,5,1014.23,30.1,35.623,1248029,17:14:16:021
-0.0253,-0.0282,4.00E-04,51.5,5,1014.23,30.1,36.768,1249029,17:14:17:021
0.0109,-0.0055,-0.004,51.5,5,1014.28,30.1,36.998,1250029,17:14:18:021
0.0248,-0.0204,-0.031,51.5,5,1014.28,30.1,36.882,1251029,17:14:19:021
0.0117,0.0066,0.0262,51.5,5,1014.27,30.1,37.112,1252029,17:14:20:021
0.0568,-0.0095,0.0632,51.5,5,1014.26,30.1,36.277,1253030,17:14:21:022
-0.0379,0.0745,-0.0197,51.5,5,1014.24,30.1,38.928,1254029,17:14:22:021
0.0221,0.0043,0.0232,51.5,5,1014.27,30.1,41.287,1255030,17:14:23:022
0.0148,-0.0527,0.053,51.5,5,1014.26,30.1,39.193,1256029,17:14:24:021
-0.0042,0.0238,-0.1621,51.5,5,1014.27,30.1,42.854,1257029,17:14:25:021
0.0202,0.0015,-0.0403,51.5,5,1014.27,30.1,40.688,1258029,17:14:26:021
0.0019,-0.072,-0.0088,51.5,5,1014.28,30.1,38.184,1259029,17:14:27:021
-0.0287,0.0106,0.0211,51.5,5,1014.3,30.1,40.551,1260030,17:14:28:022
0.0317,0.0183,0.0555,51.5,5,1014.29,30,39.022,1261030,17:14:29:022
-0.0712,0.0289,0.0597,51.5,5,1014.3,30,37.014,1262030,17:14:30:022
-0.0233,0.0536,-0.0168,51.5,5,1014.3,30,47.142,1263030,17:14:31:022
-0.0262,-0.01,-0.0515,51.5,5,1014.33,30,38.007,1264030,17:14:32:022
-0.0133,3.00E-04,-0.0784,51.5,5,1014.3,30,40.786,1265029,17:14:33:021
0.0237,-0.0726,-0.1068,51.5,5,1014.31,30,47.745,1266029,17:14:34:021
0.0277,0.0075,-0.0132,51.5,5,1014.32,30,43.396,1267030,17:14:35:022
0.0368,0.0197,-0.026,51.5,5,1014.29,30,39.933,1268029,17:14:36:021
0.03,-0.0677,-0.0446,51.5,5,1014.31,30,39.812,1269029,17:14:37:021
0.0109,-0.0985,-0.0714,51.5,5,1014.31,30,39.071,1270029,17:14:38:021
-0.0177,-0.0532,0.0533,51.5,5,1014.32,30,37.2,1271029,17:14:39:021
0.0191,0.024,-0.0139,51.5,5,1014.32,30,39.076,1272031,17:14:40:023
0.011,-0.0267,-0.0173,51.5,5,1014.32,30,37.883,1273029,17:14:41:021
-0.0269,0.0101,0.0023,51.5,5,1014.32,30,39.979,1274030,17:14:42:022
-0.0872,-0.0277,0.036,51.5,5,1014.29,29.9,40.81,1275029,17:14:43:021
0.0589,0.0419,-0.0284,51.5,5,1014.31,29.9,40.076,1276030,17:14:44:022
0.0095,0.0301,-0.0257,51.5,5,1014.31,29.9,38.443,1277030,17:14:45:022
0.0431,0.0162,-0.0738,51.5,5,1014.32,29.9,37.945,1278029,17:14:46:021
0.0051,0.0479,0.1388,51.5,5,1014.32,29.9,36.557,1279029,17:14:47:021
-0.0465,0.0666,-0.005,51.5,5,1014.31,29.9,40.332,1280029,17:14:48:021
0.049,-0.0886,0.0052,51.5,5,1014.33,29.9,42.712,1281029,17:14:49:021
-0.0454,0.0074,0.0436,51.5,5,1014.34,29.9,41.317,1282029,17:14:50:021
-0.0095,0.0255,-0.046,51.5,5,1014.31,29.9,38.707,1283029,17:14:51:021
-0.0324,-0.016,-0.0345,51.5,5,1014.33,29.9,38.966,1284029,17:14:52:021
0.0327,0.0175,0.009,51.5,5,1014.33,29.9,39.04,1285030,17:14:53:022
0.0253,-0.0094,-0.0903,51.5,5,1014.33,29.9,41.366,1286029,17:14:54:021
0.0373,0.0124,0.0344,51.5,5,1014.34,29.9,40.572,1287030,17:14:55:022
-0.0376,-0.0234,-0.0274,51.5,5,1014.31,29.9,42.193,1288029,17:14:56:021
-0.0096,-4.00E-04,0.0661,51.5,5,1014.32,29.8,38.159,1289030,17:14:57:022
0.0046,-0.0119,-0.0958,51.5,5,1014.32,29.8,37.737,1290029,17:14:58:021
0.0415,-0.0391,0.0066,51.5,5,1014.32,29.8,37.577,1291030,17:14:59:022
-0.048,-0.034,0.0691,51.5,5,1014.33,29.8,44.497,1292030,17:15:00:022
-0.0291,0.031,-0.0711,51.5,5,1014.34,29.8,42.653,1293029,17:15:01:021
-0.039,-1.00E-04,0.031,51.5,5,1014.32,29.8,45.576,1294030,17:15:02:022
0.0378,0.0173,0.0187,51.5,5,1014.33,29.8,41.918,1295029,17:15:03:021
0.0041,0.0081,-0.0127,51.5,5,1014.32,29.8,42.629,1296030,17:15:04:022
-0.0381,-0.0041,0.0489,51.5,5,1014.33,29.8,43.992,1297030,17:15:05:022
-0.0374,0.0792,0.018,51.5,5,1014.32,29.8,38.425,1298029,17:15:06:021
-0.0205,0.0147,0.0254,51.5,5,1014.31,29.8,44.937,1299029,17:15:07:021
-0.0392,-0.0351,-0.029,51.5,5,1014.32,29.8,41.679,1300030,17:15:08:022
0.0018,-0.0402,-0.0604,51.5,5,1014.31,29.8,42.45,1301029,17:15:09:021
-0.01,0.0241,-0.0185,51.5,5,1014.32,29.8,41.691,1302030,17:15:10:022
0.0065,-0.0292,0.0704,51.5,5,1014.31,29.8,46.461,1303029,17:15:11:021
0.0162,0.0705,0.0286,51.5,5,1014.32,29.8,38.401,1304029,17:15:12:021
0.0709,-0.0454,-0.0916,51.5,5,1014.33,29.8,42.102,1305030,17:15:13:022
0.003,0.0065,-0.0233,51.5,5,1014.31,29.8,44.086,1306029,17:15:14:021
0.0251,-0.031,-0.0362,51.5,5,1014.3,29.8,44.683,1307029,17:15:15:021
-0.0246,-0.0033,0.033,51.5,5,1014.31,29.7,42.78,1308030,17:15:16:022
0.0127,-0.0098,-0.0428,51.5,5,1014.3,29.7,42.605,1309030,17:15:17:022
0.0114,0.016,0.079,51.5,5,1014.32,29.7,42.324,1310030,17:15:18:022
0.037,0.0566,-0.0215,51.5,5,1014.32,29.7,43.908,1311029,17:15:19:021
0.0013,-0.0525,-0.0377,51.5,5,1014.31,29.7,43.363,1312030,17:15:20:022
0.0249,0.069,-0.0078,51.5,5,1014.31,29.7,39.93,1313029,17:15:21:021
0.0893,0.0072,-0.019,51.5,5,1014.31,29.7,42.743,1314030,17:15:22:022
0.0018,0.0082,-0.0501,51.5,5,1014.31,29.7,42.574,1315029,17:15:23:021
0.0098,0.0051,-0.0199,51.5,5,1014.34,29.7,42.738,1316029,17:15:24:021
-0.0057,0.0098,-0.131,51.5,5,1014.32,29.7,40.091,1317029,17:15:25:021
0.009,-0.0575,0.04,51.5,5,1014.32,29.7,42.137,1318029,17:15:26:021
0.024,0.0313,8.00E-04,51.5,5,1014.3,29.7,44.16,1319030,17:15:27:022
0.0446,0.0035,-0.0164,51.5,5,1014.34,29.7,41.156,1320029,17:15:28:021
-0.008,-0.0469,0.0092,51.5,5,1014.34,29.7,42.904,1321029,17:15:29:021
-0.0283,0.0012,-0.0049,51.5,5,1014.31,29.7,38.408,1322030,17:15:30:022
0.02,-0.0468,-0.0057,51.5,5,1014.33,29.7,38.652,1323029,17:15:31:021
0.0379,-0.0052,-0.0846,51.5,5,1014.33,29.7,39.233,1324029,17:15:32:021
0.018,0.1088,0.0357,51.5,5,1014.31,29.7,41.562,1325029,17:15:33:021
-0.0515,-0.0486,0.0213,51.5,5,1014.32,29.7,43.838,1326029,17:15:34:021
-0.0581,-0.0309,0.0075,51.5,5,1014.33,29.7,42.025,1327030,17:15:35:022
0.0494,-0.0189,-0.0944,51.5,5,1014.32,29.7,43.742,1328029,17:15:36:021
-0.0472,0.0544,0.0965,51.5,5,1014.34,29.7,42.1,1329030,17:15:37:022
0.0292,0.0554,-0.0246,51.5,5,1014.32,29.6,39.548,1330029,17:15:38:021
-0.0257,0.0273,-0.0078,51.5,5,1014.34,29.6,41.307,1331029,17:15:39:021
0.0348,-0.0014,0.0465,51.5,5,1014.34,29.6,41.502,1332029,17:15:40:021
0.0035,0.0327,0.0585,51.5,5,1014.35,29.6,41.862,1333030,17:15:41:022
-0.0276,-0.0134,-0.0473,51.5,5,1014.36,29.6,44.023,1334029,17:15:42:021
-0.0035,0.0147,0.0144,51.5,5,1014.35,29.6,44.663,1335029,17:15:43:021
-0.009,-0.0117,-0.0202,51.5,5,1014.33,29.6,45.38,1336029,17:15:44:021
-0.047,-0.0113,-0.0123,51.5,5,1014.34,29.6,40.688,1337030,17:15:45:022
0.0514,-0.023,0.0051,51.5,5,1014.34,29.6,39.051,1338029,17:15:46:021
-0.0418,-0.0234,0.0578,51.5,5,1014.34,29.6,43.587,1339029,17:15:47:021
0.0168,0.0344,0.0458,51.5,5,1014.37,29.6,41.148,1340029,17:15:48:021
-0.0243,-8.00E-04,0.0407,51.5,5,1014.37,29.6,42.455,1341030,17:15:49:022
0.029,-0.0323,-0.0201,51.5,5,1014.36,29.6,39.191,1342030,17:15:50:022
-0.0609,-0.0075,0.0779,51.5,5,1014.36,29.6,42.292,1343029,17:15:51:021
-0.0746,0.0072,0.0409,51.5,5,1014.36,29.6,43.451,1344029,17:15:52:021
-0.008,0.0233,0.0312,51.5,5,1014.37,29.6,41.018,1345030,17:15:53:022
0.0537,0.0305,-0.0568,51.5,5,1014.38,29.6,39.316,1346029,17:15:54:021
0.0435,-0.0243,0.0134,51.5,5,1014.37,29.6,38.518,1347029,17:15:55:021
0.0213,0.0148,0.0048,51.5,5,1014.39,29.6,39.761,1348029,17:15:56:021
-3.00E-04,0.0138,0.0352,51.5,5,1014.39,29.6,43.719,1349029,17:15:57:021
0.0168,0.0025,-0.0464,51.5,5,1014.39,29.6,38.605,1350029,17:15:58:021
0.0089,-0.0306,-0.0213,51.5,5,1014.37,29.6,40.571,1351029,17:15:59:021
0.0866,-0.1036,0.0012,51.5,5,1014.39,29.5,37.809,1352030,17:16:00:022
-0.0545,-0.0097,-0.0346,51.5,5,1014.48,29.5,40.187,1353029,17:16:01:021
-0.0395,0.0736,0.0679,51.5,5,1014.47,29.6,36.79,1354029,17:16:02:021
-0.0241,0.0094,-0.0039,51.5,5,1014.42,29.6,38.926,1355030,17:16:03:022
0.0056,0.0542,0.0254,51.5,5,1014.41,29.6,43.445,1356029,17:16:04:021
0.0281,0.0309,0.0875,51.5,5,1014.4,29.6,42.566,1357029,17:16:05:021
0.0329,-0.0311,-0.018,51.5,5,1014.44,29.5,41.309,1358030,17:16:06:022
0.0357,0.0731,0.0399,51.5,5,1014.4,29.5,44.097,1359029,17:16:07:021
0.0064,0.0314,-0.0201,51.5,5,1014.38,29.5,42.731,1360030,17:16:08:022
0.0232,-0.1272,-0.025,51.5,5,1014.39,29.5,42.679,1361029,17:16:09:021
-0.0169,-0.0015,0.0278,51.5,5,1014.38,29.5,41.104,1362029,17:16:10:021
-0.0457,0.0152,0.0233,51.5,5,1014.38,29.5,40.134,1363029,17:16:11:021
0.0796,0.0662,0.0037,51.5,5,1014.4,29.5,42.666,1364029,17:16:12:021
-0.015,5.00E-04,0.0179,51.5,5,1014.39,29.5,40.963,1365030,17:16:13:022
-0.0674,-8.00E-04,-0.0431,51.5,5,1014.38,29.5,40.851,1366030,17:16:14:022
-0.0142,-0.077,-0.0835,51.5,5,1014.35,29.5,38.607,1367029,17:16:15:021
-0.019,-0.0014,-0.0349,51.5,5,1014.38,29.5,41.479,1368029,17:16:16:021
0.0326,-0.0072,0.1086,51.5,5,1014.37,29.5,40.59,1369030,17:16:17:022
-0.0169,-0.0136,0.0095,51.5,5,1014.37,29.5,40.429,1370029,17:16:18:021
0.0135,-0.0694,-0.1007,51.5,5,1014.39,29.5,39.433,1371029,17:16:19:021
-0.0233,-0.0218,-0.0126,51.5,5,1014.38,29.5,39.427,1372030,17:16:20:022
0.0497,0.0233,0.0192,51.5,5,1014.36,29.5,41.002,1373029,17:16:21:021
-0.0147,-0.0594,0.0385,51.5,5,1014.34,29.5,39.131,1374029,17:16:22:021
-0.0427,-0.0422,-0.0166,51.5,5,1014.36,29.5,42.198,1375029,17:16:23:021
-0.0851,0.0241,-0.0112,51.5,5,1014.33,29.5,42.067,1376030,17:16:24:022
0.0606,-0.0308,-0.0191,51.5,5,1014.36,29.5,42.503,1377030,17:16:25:022
-0.0181,-0.0081,-0.0292,51.5,5,1014.35,29.5,41.223,1378029,17:16:26:021
-0.0554,0.0508,-0.0025,51.5,5,1014.35,29.5,40.26,1379029,17:16:27:021
-0.0284,0.0244,-0.0548,51.5,5,1014.33,29.5,41.699,1380029,17:16:28:021
-0.0181,-0.0316,0.0618,51.5,5,1014.35,29.5,42.004,1381030,17:16:29:022
-0.0224,-0.0212,-0.0702,51.5,5,1014.33,29.5,46.389,1382030,17:16:30:022
0.0312,-0.0554,-0.0075,51.5,5,1014.36,29.5,41.361,1383029,17:16:31:021
-0.0528,0.0037,-0.0181,51.5,5,1014.35,29.4,42.478,1384029,17:16:32:021
-0.0613,0.0228,0.0201,51.5,5,1014.36,29.4,42.716,1385029,17:16:33:021
-0.0588,-5.00E-04,0.0835,51.5,5,1014.36,29.4,40.058,1386029,17:16:34:021
0.0153,0.0802,0.0036,51.5,5,1014.39,29.4,42.842,1387029,17:16:35:021
0.0012,-0.0246,0.0855,51.5,5,1014.41,29.4,41.555,1388030,17:16:36:022
0.013,-0.0513,-0.0013,51.5,5,1014.41,29.4,40.27,1389030,17:16:37:022
0.0272,0.0063,-0.0055,51.5,5,1014.42,29.4,44.067,1390029,17:16:38:021
-0.0455,-0.024,0.0069,51.5,5,1014.45,29.4,43.129,1391029,17:16:39:021
0.0421,-0.0104,-0.0489,51.5,5,1014.42,29.4,43.355,1392030,17:16:40:022
0.0253,-0.0222,-0.117,51.5,5,1014.42,29.4,45.172,1393030,17:16:41:022
-0.0073,-0.0606,0.0202,51.5,5,1014.42,29.4,44.628,1394030,17:16:42:022
0.0245,0.0198,0.0308,51.5,5,1014.41,29.4,46.688,1395030,17:16:43:022
0.0153,0.0046,0.0423,51.5,5,1014.41,29.4,44.631,1396029,17:16:44:021
0.0487,0.0399,0.0541,51.5,5,1014.39,29.4,45.136,1397029,17:16:45:021
-0.0182,-0.1103,-0.0491,51.5,5,1014.38,29.4,45.309,1398030,17:16:46:022
-0.0244,0.0362,0.0841,51.5,5,1014.38,29.4,41.718,1399030,17:16:47:022
0.0262,0.0315,-3.00E-04,51.5,5,1014.36,29.4,44.159,1400029,17:16:48:021
0.0107,0.0108,0.0043,51.5,5,1014.35,29.4,43.815,1401029,17:16:49:021
-0.0263,-0.031,-0.0215,51.5,5,1014.34,29.4,34.201,1402029,17:16:50:021
-0.049,-0.0249,-0.0079,51.5,5,1014.34,29.4,35.623,1403030,17:16:51:022
0.0594,0.0234,-0.026,51.5,5,1014.36,29.4,51.876,1404029,17:16:52:021
-0.0219,-0.0176,-7.00E-04,51.5,5,1014.53,29.4,37.661,1405029,17:16:53:021
-0.0133,-0.0117,-0.0092,51.5,5,1014.51,29.4,35.599,1406029,17:16:54:021
-0.0142,-0.002,0.0164,51.5,5,1014.44,29.4,36.08,1407029,17:16:55:021
0.0537,-0.0218,0.0087,51.5,5,1014.39,29.4,35.235,1408029,17:16:56:021
0.0035,0.0379,0.0753,51.5,5,1014.37,29.4,33.715,1409030,17:16:57:022
0.0065,-0.0128,0.0324,51.5,5,1014.41,29.4,34.58,1410029,17:16:58:021
-0.076,-0.0321,-0.0466,51.5,5,1014.4,29.4,35.492,1411029,17:16:59:021
-0.0672,0.0114,-0.0909,51.5,5,1014.42,29.4,53.432,1412029,17:17:00:021
0.0209,0.0365,-0.0116,51.5,5,1014.4,29.4,41.649,1413029,17:17:01:021
-0.0607,0.0309,0.1007,51.5,5,1014.36,29.4,41.145,1414029,17:17:02:021
0.0077,-0.0447,0.102,51.5,5,1014.36,29.4,32.339,1415030,17:17:03:022
-0.0187,-0.011,-0.0029,51.5,5,1014.36,29.4,35.943,1416030,17:17:04:022
0.0418,-0.0146,-0.0598,51.5,5,1014.36,29.4,38.715,1417029,17:17:05:021
-0.0365,-0.0417,-0.0349,51.5,5,1014.35,29.4,36.186,1418029,17:17:06:021
-3.00E-04,0.0092,0.0144,51.5,5,1014.35,29.4,38.33,1419029,17:17:07:021
0.027,0.0123,-0.0095,51.5,5,1014.35,29.4,44.781,1420030,17:17:08:022
-0.0047,-0.0125,-0.0336,51.5,5,1014.35,29.4,49.22,1421029,17:17:09:021
0.1004,0.0387,0.0429,51.5,5,1014.36,29.4,36.771,1422029,17:17:10:021
0.0097,-0.0645,-0.1332,51.5,5,1014.36,29.4,39.494,1423029,17:17:11:021
0.0512,0.0072,0.0289,51.5,5,1014.38,29.4,38.831,1424029,17:17:12:021
0.0388,-0.0609,-0.0396,51.5,5,1014.37,29.4,34.332,1425029,17:17:13:021
-0.0227,0.0079,-0.0159,51.5,5,1014.37,29.3,36.606,1426029,17:17:14:021
0.0153,-0.0445,-0.0423,51.5,5,1014.36,29.3,37.672,1427029,17:17:15:021
-0.0676,-0.0078,-0.0914,51.5,5,1014.37,29.3,40.345,1428030,17:17:16:022
0.0066,0.0185,0.0156,51.5,5,1014.41,29.3,36.265,1429029,17:17:17:021
0.0016,-0.0058,0.0141,51.5,5,1014.4,29.3,36.173,1430029,17:17:18:021
0.0432,0.0552,0.0213,51.5,5,1014.41,29.3,39.936,1431029,17:17:19:021
-0.0112,-0.002,0.0491,51.5,5,1014.39,29.3,42.657,1432029,17:17:20:021
0.0343,0.0071,0.0372,51.5,5,1014.38,29.3,38.397,1433029,17:17:21:021
-0.0129,-0.0053,-0.0102,51.5,5,1014.38,29.3,37.785,1434029,17:17:22:021
0.0236,0.0357,0.076,51.5,5,1014.39,29.3,36.63,1435029,17:17:23:021
-0.0291,0.047,0.0364,51.5,5,1014.38,29.3,34.305,1436030,17:17:24:022
-0.0461,0.0131,-0.0466,51.5,5,1014.38,29.3,34.89,1437030,17:17:25:022
0.0021,0.0155,-0.0229,51.5,5,1014.4,29.3,34.018,1438029,17:17:26:021
-0.0157,0.0324,-0.0146,51.5,5,1014.37,29.3,34.844,1439029,17:17:27:021
-0.0124,-0.0306,-0.0529,51.5,5,1014.37,29.3,34.511,1440030,17:17:28:022
7.00E-04,-0.0277,0.0012,51.5,5,1014.35,29.3,34.845,1441030,17:17:29:022
0.0309,0.0035,0.0665,51.5,5,1014.37,29.3,37.319,1442030,17:17:30:022
0.0126,-0.0033,-0.037,51.5,5,1014.39,29.3,36.52,1443030,17:17:31:022
-0.0311,-0.0248,0.0658,51.5,5,1014.5,29.3,41.712,1444029,17:17:32:021
-0.0032,2.00E-04,0.0173,45.56,5,1014.52,29.3,41.754,1445029,17:17:33:021
0.0379,-0.0011,-0.0309,45.56,5,1015.06,29.3,37.895,1446029,17:17:34:021
0.0746,-0.0259,-0.0259,45.56,5,1015.38,29.4,39.575,1447029,17:17:35:021
0.0572,0.0749,0.0153,45.56,5,1015.6,29.5,53.376,1448029,17:17:36:021
-0.024,0.0429,-0.0219,45.56,5,1015.81,29.6,39.528,1449029,17:17:37:021
