LINEAR ACCELERATION X,LINEAR ACCELERATION Y,LINEAR ACCELERATION Z,LIGHT (lux),PROXIMITY (m),ATMOSPHERIC PRESSURE (hPa),TEMPERATURE (C),SOUND LEVEL (dB),Time since start in ms ,YYYY-MO-DD HH-MI-SS_SSS
0.0239,0.059,-0.037,45.56,5,1017.38,27.9,0,4,19:54:31:996
0.0101,-0.0101,-0.0298,45.56,5,1017.43,27.9,0,1003,19:54:32:995
-0.0418,0.0145,-0.0357,45.56,5,1017.52,27.9,0,2004,19:54:33:996
0.0405,-0.0164,0.0372,45.56,5,1017.44,28,0,3004,19:54:34:996
0.039,0.0345,0.0467,45.56,5,1017.33,28,0,4003,19:54:35:995
-0.0459,0.0399,-0.0041,45.56,5,1017.25,28,0,5003,19:54:36:995
0.047,0.0478,0.0762,45.56,5,1017.19,28,0,6003,19:54:37:995
0.0334,0.054,-0.0221,45.56,5,1017.16,28,0,7004,19:54:38:996
0.033,0.0118,0.0317,45.56,5,1017.12,28,0,8004,19:54:39:996
0.0215,-0.0268,-0.0831,45.56,5,1017.03,28,0,9004,19:54:40:996
0.0026,0.0205,-0.0264,45.56,5,1016.98,28,0,10003,19:54:41:995
0.0212,0.0289,0.027,45.56,5,1016.93,28,0,11004,19:54:42:996
0.0214,-0.0347,0.079,45.56,5,1016.93,28,0,12003,19:54:43:995
-0.0235,-0.0161,0.0035,45.56,5,1016.93,27.9,0,13004,19:54:44:996
-0.0096,-0.0106,-0.0184,45.56,5,1016.93,27.9,0,14004,19:54:45:996
0.0147,-0.0401,-0.0711,45.56,5,1016.93,27.9,0,15004,19:54:46:996
0.0294,-0.0032,-0.0689,45.56,5,1016.97,27.9,0,16004,19:54:47:996
-0.0289,-0.08,-0.0901,45.56,5,1016.96,27.9,0,17003,19:54:48:995
0.017,-0.0094,0.0232,45.56,5,1016.98,27.9,0,18004,19:54:49:996
0.0567,-0.0453,0.0318,45.56,5,1017,27.9,0,19003,19:54:50:995
-0.0059,0.0246,-0.0513,45.56,5,1017.04,27.9,0,20004,19:54:51:996
0.0526,-0.0068,0.0606,45.56,5,1017.04,27.9,0,21004,19:54:52:996
0.0581,0.011,0.0592,45.56,5,1017,27.8,0,22004,19:54:53:996
0.0154,0.0103,0.064,45.56,5,1017.01,27.8,0,23004,19:54:54:996
-0.034,-0.0544,-0.0581,45.56,5,1017.01,27.8,0,24003,19:54:55:995
-0.0081,0.0075,-0.0467,45.56,5,1017,27.8,0,25004,19:54:56:996
-0.0048,-0.0104,0.0145,45.56,5,1017.06,27.8,0,26004,19:54:57:996
0.0504,0.0057,0.0077,45.56,5,1017.13,27.8,0,27004,19:54:58:996
0.0549,-0.0938,-0.0738,45.56,5,1017.21,27.8,0,28003,19:54:59:995
-0.0139,-0.0282,0.0407,45.56,5,1017.25,27.8,0,29004,19:55:00:996
-0.0107,-0.0312,0.0086,45.56,5,1017.28,27.9,0,30003,19:55:01:995
-0.0099,0.0386,0.0359,45.56,5,1017.28,27.9,0,31003,19:55:02:995
0.0422,0.0242,-0.0633,45.56,5,1017.27,27.9,0,32003,19:55:03:995
-0.0088,0.0055,-0.0058,45.56,5,1017.19,27.9,0,33003,19:55:04:995
-0.0414,-0.0255,-0.0306,45.56,5,1017.12,27.9,0,34004,19:55:05:996
-0.0598,0.0296,-0.0057,45.56,5,1017.18,27.9,0,35003,19:55:06:995
-0.0263,0.0055,-0.0643,45.56,5,1017.22,27.9,0,36003,19:55:07:995
-0.0057,-0.0322,0.0106,45.56,5,1017.3,27.9,0,37003,19:55:08:995
0.0394,-0.0458,-0.0305,45.56,5,1017.34,27.9,0,38003,19:55:09:995
-0.0276,0.0518,0.0676,45.56,5,1017.34,27.9,0,39003,19:55:10:995
0.0545,0.0207,0.0956,45.56,5,1017.29,28,0,40004,19:55:11:996
-0.033,0.0343,-0.0558,45.56,5,1017.24,28,0,41003,19:55:12:995
0.0059,0.0022,0.0706,45.56,5,1017.24,28,0,42003,19:55:13:995
-0.063,-0.0493,-0.0131,45.56,5,1017.21,28,0,43003,19:55:14:995
-0.0097,-0.018,-0.097,45.56,5,1017.12,28,0,44004,19:55:15:996
-5.00E-04,-0.0371,-0.0268,45.56,5,1017.1,28,0,45004,19:55:16:996
0.0277,0.0311,0.0033,45.56,5,1017.09,28,0,46004,19:55:17:996
-0.0368,-0.0047,-0.0134,45.56,5,1017.05,28,0,47003,19:55:18:995
0.0571,0.0366,-0.0614,45.56,5,1017.04,28,0,48003,19:55:19:995
-0.0084,0.0049,-0.029,45.56,5,1016.99,28,0,49003,19:55:20:995
-0.0557,0.0064,0.0979,45.56,5,1016.99,27.9,0,50004,19:55:21:996
0.0066,0.01,-0.0136,45.56,5,1016.97,27.9,0,51004,19:55:22:996
-0.0209,0.0532,0.0089,45.56,5,1016.98,27.9,0,52004,19:55:23:996
-0.0377,0.0046,-0.0447,45.56,5,1016.99,27.9,0,53003,19:55:24:995
-0.0176,0.0321,0.0166,45.56,5,1017.01,27.9,0,54003,19:55:25:995
-0.046,0.0037,0.0727,45.56,5,1017.06,27.9,0,55004,19:55:26:996
-0.0016,0.0301,7.00E-04,45.56,5,1017.01,27.9,0,56004,19:55:27:996
-0.055,-0.001,0.0404,45.56,5,1017.03,27.9,0,57003,19:55:28:995
-0.0095,-0.0209,0.0194,45.56,5,1017.02,27.9,0,58003,19:55:29:995
-0.0208,-0.0211,0.0036,45.56,5,1017.04,27.9,0,59004,19:55:30:996
-0.0122,0.0296,-0.0465,45.56,5,1017.02,27.9,0,60003,19:55:31:995
0.0099,-0.0192,-0.0153,45.56,5,1017.04,27.9,0,61004,19:55:32:996
-0.0128,0.0072,0.0571,45.56,5,1017.04,27.9,0,62004,19:55:33:996
-0.0043,0.0086,-0.113,45.56,5,1017.09,27.9,0,63004,19:55:34:996
0.034,0.0313,0.0547,45.56,5,1017.34,27.9,0,64003,19:55:35:995
-0.0047,-0.0023,0.0122,45.56,5,1017.55,27.9,0,65003,19:55:36:995
-0.0257,-0.055,0.0329,45.56,5,1017.43,27.9,0,66004,19:55:37:996
0.0579,0.021,0.0212,45.56,5,1017.3,28,0,67004,19:55:38:996
-0.0025,0.0031,-0.0297,45.56,5,1017.12,28,0,68004,19:55:39:996
-9.00E-04,-0.0083,-0.0503,45.56,5,1017.02,28,0,69004,19:55:40:996
-0.0147,0.0057,-0.0854,45.56,5,1016.92,27.9,0,70003,19:55:41:995
0.0165,-0.0449,0.0349,45.56,5,1016.87,27.9,0,71003,19:55:42:995
-0.0125,0,-0.0062,45.56,5,1016.82,27.9,0,72004,19:55:43:996
-0.0376,0.0027,-0.0612,45.56,5,1016.79,27.9,0,73004,19:55:44:996
-3.00E-04,0.0447,-0.0361,45.56,5,1016.74,27.9,0,74005,19:55:45:997
-0.0224,-0.0298,-0.0146,45.56,5,1016.76,27.8,0,75004,19:55:46:996
-0.0108,-0.0056,0.0142,45.56,5,1016.76,27.8,0,76003,19:55:47:995
0.0246,0.0276,0.0277,45.56,5,1016.78,27.8,0,77005,19:55:48:997
0.0471,-0.0475,-0.0238,45.56,5,1016.82,27.8,0,78004,19:55:49:996
0.0095,0.0066,0.0399,45.56,5,1016.81,27.8,0,79004,19:55:50:996
0.0889,0.0095,0.0226,45.56,5,1016.83,27.7,0,80003,19:55:51:995
-0.0014,-0.026,0.0019,45.56,5,1016.87,27.7,0,81004,19:55:52:996
-0.0938,0.0447,0.0194,45.56,5,1016.87,27.7,0,82003,19:55:53:995
0.0288,0.0055,-0.0654,45.56,5,1016.88,27.7,0,83004,19:55:54:996
-0.0202,0.0361,0.07,45.56,5,1016.89,27.7,0,84004,19:55:55:996
-0.0253,-0.0273,0.0822,45.56,5,1016.89,27.7,0,85003,19:55:56:995
0.034,0.0064,-0.0142,45.56,5,1016.93,27.6,0,86004,19:55:57:996
-0.0142,0.0247,-0.0063,45.56,5,1016.94,27.6,0,87004,19:55:58:996
-0.0019,0.0203,0.0431,45.56,5,1016.94,27.6,0,88003,19:55:59:995
0.039,-0.0151,0.0035,45.56,5,1016.96,27.6,0,89004,19:56:00:996
-0.0391,-0.0316,-0.0746,45.56,5,1016.96,27.6,0,90004,19:56:01:996
0.0094,-0.0249,0.0074,45.56,5,1016.96,27.6,0,91003,19:56:02:995
0.0746,-0.0639,0.0313,45.56,5,1016.95,27.6,0,92004,19:56:03:996
0.0553,0.0553,0.0177,45.56,5,1016.95,27.6,0,93004,19:56:04:996
0.0289,0.0272,-0.0198,45.56,5,1016.97,27.5,0,94004,19:56:05:996
0.0388,-0.0214,-0.0613,45.56,5,1016.93,27.5,0,95004,19:56:06:996
-0.0011,0.0147,-0.0476,45.56,5,1016.96,27.5,0,96004,19:56:07:996
0.0251,0.0345,0.0024,45.56,5,1016.99,27.5,0,97004,19:56:08:996
-0.0037,-0.0163,0.0102,45.56,5,1016.98,27.5,0,98003,19:56:09:995
0.0492,0.0446,-0.0665,45.56,5,1017.01,27.5,0,99004,19:56:10:996
0.0154,-0.015,-0.0427,45.56,5,1017.01,27.5,0,100004,19:56:11:996
0.0081,0.0507,0.0268,45.56,5,1017.01,27.5,0,101004,19:56:12:996
-0.0027,-0.0391,0.0109,45.56,5,1017.01,27.5,0,102004,19:56:13:996
0.0126,0.0336,-0.0107,45.56,5,1017.01,27.5,0,103004,19:56:14:996
0.0678,-0.0741,0.0431,45.56,5,1017.01,27.5,0,104004,19:56:15:996
0.0503,0.0529,-0.0204,45.56,5,1017,27.4,0,105004,19:56:16:996
-0.0518,-0.0076,-0.0774,45.56,5,1016.99,27.4,0,106004,19:56:17:996
-0.0012,-0.0218,0.0258,45.56,5,1017.01,27.4,0,107004,19:56:18:996
0.0114,0.0199,-0.0756,45.56,5,1016.99,27.4,0,108003,19:56:19:995
0.0281,-0.0168,-0.0069,45.56,5,1016.99,27.4,0,109003,19:56:20:995
-0.0183,-0.0615,-0.0278,45.56,5,1017,27.4,0,110004,19:56:21:996
0.0418,0.0392,-0.0289,45.56,5,1017,27.4,0,111003,19:56:22:995
0.0392,0.0077,0.018,45.56,5,1017.02,27.4,0,112003,19:56:23:995
-0.0026,-0.0211,0.0227,45.56,5,1017.01,27.4,0,113004,19:56:24:996
0.0182,-0.0071,-0.0384,45.56,5,1017.03,27.4,0,114004,19:56:25:996
0.09,-0.0087,-0.0359,45.56,5,1017.03,27.4,0,115004,19:56:26:996
0.0549,-0.0653,-0.0783,45.56,5,1017.05,27.4,0,116003,19:56:27:995
-0.0015,-0.0279,-0.048,45.56,5,1017.03,27.4,0,117004,19:56:28:996
0.0021,-0.026,-0.0074,45.56,5,1017.02,27.4,0,118004,19:56:29:996
-0.0125,0.0052,-0.0982,45.56,5,1017.02,27.4,0,119003,19:56:30:995
0.0723,-0.0935,-0.0414,45.56,5,1017.03,27.4,0,120003,19:56:31:995
0.0469,-0.053,-0.0356,45.56,5,1017.01,27.4,0,121004,19:56:32:996
0.011,-0.0129,-0.0489,45.56,5,1017.02,27.4,0,122003,19:56:33:995
-0.0148,0.0192,0.0147,45.56,5,1017.03,27.3,0,123004,19:56:34:996
0.0318,0.0157,0.0606,45.56,5,1017.02,27.3,0,124003,19:56:35:995
0.0451,0.0313,-0.0061,45.56,5,1017,27.3,0,125004,19:56:36:996
0.0222,-0.0122,-0.1083,45.56,5,1017,27.3,0,126004,19:56:37:996
0.0018,-0.0053,-0.0728,45.56,5,1017.02,27.3,0,127004,19:56:38:996
-0.0403,-0.0022,0.0213,45.56,5,1017.02,27.3,0,128004,19:56:39:996
0.0015,-0.0517,-0.0252,45.56,5,1016.99,27.3,0,129004,19:56:40:996
0.0044,-0.0359,0.0103,45.56,5,1017.03,27.3,0,130004,19:56:41:996
0.0412,-0.0345,0.0223,45.56,5,1017.03,27.3,0,131004,19:56:42:996
0.0116,0.0212,0.0733,45.56,5,1017.02,27.3,0,132004,19:56:43:996
-0.0637,0.0118,0.0323,45.56,5,1017.03,27.3,0,133003,19:56:44:995
0.0412,-0.0408,5.00E-04,45.56,5,1017.03,27.3,0,134003,19:56:45:995
0.0357,0.0093,0.088,45.56,5,1017.04,27.3,0,135004,19:56:46:996
0.0065,0.0259,0.0509,45.56,5,1017.03,27.3,0,136004,19:56:47:996
-0.0069,-0.0384,0.0233,45.56,5,1017.03,27.3,0,137004,19:56:48:996
0.0541,0.026,0.0408,45.56,5,1017.05,27.3,0,138003,19:56:49:995
8.00E-04,-0.0439,0.0469,45.56,5,1017.08,27.3,0,139004,19:56:50:996
0.039,-0.0044,-0.0172,45.56,5,1017.08,27.3,0,140003,19:56:51:995
-0.0195,-0.012,0.0018,45.56,5,1017.07,27.3,0,141004,19:56:52:996
-0.0263,-0.0243,-0.101,45.56,5,1017.07,27.3,0,142003,19:56:53:995
-0.0182,0.0473,-0.0283,45.56,5,1017.09,27.3,0,143003,19:56:54:995
0.0437,0.0067,0.0449,45.56,5,1017.09,27.3,0,144004,19:56:55:996
0.0455,-0.0166,0.0048,45.56,5,1017.08,27.3,0,145003,19:56:56:995
-0.0306,0.0252,0.0462,45.56,5,1017.07,27.3,0,146004,19:56:57:996
0.0403,-0.0073,-0.0409,45.56,5,1017.06,27.3,0,147004,19:56:58:996
0.0531,-0.0065,0.0678,45.56,5,1017.09,27.3,0,148004,19:56:59:996
-0.0499,-0.0043,0.0538,45.56,5,1017.1,27.3,0,149004,19:57:00:996
-0.0211,-0.0183,-0.0379,45.56,5,1017.08,27.3,0,150004,19:57:01:996
0.068,0.0022,0.0166,45.56,5,1017.06,27.2,0,151003,19:57:02:995
-0.0074,-0.0063,-0.0417,45.56,5,1017.08,27.2,0,152003,19:57:03:995
-0.0392,-0.0639,0.0089,45.56,5,1017.07,27.2,0,153004,19:57:04:996
3.00E-04,0.017,-0.0034,45.56,5,1017.07,27.2,0,154003,19:57:05:995
-0.0015,0.019,0.0207,45.56,5,1017.06,27.2,0,155004,19:57:06:996
0.0251,-0.01,-0.0089,45.56,5,1017.09,27.2,0,156003,19:57:07:995
0.0356,0.0251,-0.0887,45.56,5,1017.09,27.2,0,157004,19:57:08:996
-0.0155,0.0079,-0.0427,45.56,5,1017.13,27.2,0,158004,19:57:09:996
0.0233,-0.0353,-0.0331,45.56,5,1017.16,27.2,0,159003,19:57:10:995
0.0292,-0.0042,0.0365,45.56,5,1017.18,27.2,0,160003,19:57:11:995
-0.0103,8.00E-04,0.0068,45.56,5,1017.15,27.2,0,161004,19:57:12:996
-0.0666,-0.0349,0.0125,45.56,5,1017.13,27.2,0,162004,19:57:13:996
-0.061,0.0115,0.0753,45.56,5,1017.12,27.2,0,163004,19:57:14:996
0.01,-0.0531,0.01,45.56,5,1017.15,27.2,0,164003,19:57:15:995
0.0078,0.029,0.0718,45.56,5,1017.17,27.2,0,165003,19:57:16:995
-0.0189,-0.0115,0.0217,45.56,5,1017.18,27.2,0,166004,19:57:17:996
-0.0288,-0.027,0.0289,45.56,5,1017.18,27.2,0,167004,19:57:18:996
-0.0325,-0.002,0.0354,45.56,5,1017.17,27.2,0,168004,19:57:19:996
0.0731,-0.004,0.012,45.56,5,1017.18,27.2,0,169004,19:57:20:996
-0.0277,-0.0372,0.0136,45.56,5,1017.14,27.2,0,170004,19:57:21:996
-0.0061,0.0915,0.0469,45.56,5,1017.15,27.3,0,171004,19:57:22:996
6.00E-04,0.0355,0.0074,45.56,5,1017.17,27.3,0,172004,19:57:23:996
0.0519,0.07,-0.0297,45.56,5,1017.13,27.3,0,173004,19:57:24:996
-0.0355,0.0171,-0.018,45.56,5,1017.09,27.3,0,174004,19:57:25:996
0.0782,0.0036,0.058,45.56,5,1017.06,27.3,0,175004,19:57:26:996
0.0093,0.018,0.0068,45.56,5,1017.06,27.3,0,176004,19:57:27:996
-0.0488,0.0188,0.032,45.56,5,1017.04,27.2,0,177004,19:57:28:996
0.0439,-0.0241,-0.0096,45.56,5,1017.07,27.2,0,178004,19:57:29:996
0.0114,-0.002,0.0471,45.56,5,1017.11,27.2,0,179004,19:57:30:996
0.0581,-0.0031,0.0805,45.56,5,1017.24,27.2,0,180004,19:57:31:996
-0.0233,-0.0075,-0.0228,45.56,5,1017.2,27.3,0,181003,19:57:32:995
-0.0613,-0.0105,-0.0829,45.56,5,1017.16,27.3,0,182004,19:57:33:996
-0.0389,-0.0158,-0.0767,45.56,5,1017.14,27.3,0,183003,19:57:34:995
-0.0117,0.0195,-0.0342,45.56,5,1017.12,27.3,0,184004,19:57:35:996
0.0076,0.0097,0.0108,45.56,5,1017.11,27.3,0,185004,19:57:36:996
0.0168,-0.0255,0.0982,45.56,5,1017.15,27.3,0,186004,19:57:37:996
0.044,0.0237,0.0448,45.56,5,1017.15,27.3,0,187003,19:57:38:995
0.0083,0.0517,-0.0172,45.56,5,1017.12,27.3,0,188003,19:57:39:995
-0.0131,-0.02,0.0157,45.56,5,1017.08,27.3,0,189003,19:57:40:995
0.0082,0.0346,-0.0528,45.56,5,1017.09,27.3,0,190003,19:57:41:995
-0.0418,-0.0525,0.0105,45.56,5,1017.1,27.3,0,191003,19:57:42:995
0.047,0.0805,-0.0781,45.56,5,1017.14,27.2,0,192003,19:57:43:995
0.0022,0.0205,-0.0531,45.56,5,1017.13,27.2,0,193004,19:57:44:996
-0.0134,0.0137,0.0043,45.56,5,1017.12,27.2,0,194004,19:57:45:996
-0.0312,0.0237,0.0345,45.56,5,1017.08,27.2,0,195004,19:57:46:996
0.0511,1.00E-04,0.0037,45.56,5,1017.05,27.2,0,196004,19:57:47:996
0.0035,-0.0354,-0.044,45.56,5,1017.07,27.2,0,197003,19:57:48:995
0.0136,0.0214,-0.0716,45.56,5,1017.05,27.2,0,198003,19:57:49:995
0.0504,-0.0191,-0.0088,45.56,5,1017.1,27.2,0,199004,19:57:50:996
0.0198,-0.0046,-0.0374,45.56,5,1017.09,27.2,0,200004,19:57:51:996
0.011,-0.0188,0.089,45.56,5,1017.1,27.2,0,201004,19:57:52:996
0.0579,9.00E-04,-0.051,45.56,5,1017.13,27.2,0,202004,19:57:53:996
9.00E-04,-0.0375,0.0608,45.56,5,1017.13,27.2,0,203003,19:57:54:995
0.01,-0.0491,-0.0263,45.56,5,1017.12,27.2,0,204004,19:57:55:996
0.0107,-0.0193,0.0035,45.56,5,1017.14,27.2,0,205004,19:57:56:996
-0.0261,0.0462,8.00E-04,45.56,5,1017.12,27.2,0,206004,19:57:57:996
0.0662,-0.0371,-0.0329,45.56,5,1017.1,27.2,0,207004,19:57:58:996
0.0127,0.0107,-0.0088,45.56,5,1017.09,27.2,0,208004,19:57:59:996
0.0346,-0.0432,-0.0297,45.56,5,1017.07,27.2,0,209003,19:58:00:995
0.0238,0.0479,0.007,45.56,5,1017.03,27.2,0,210004,19:58:01:996
0.0638,0.0066,-0.0014,45.56,5,1017.03,27.2,0,211004,19:58:02:996
-0.005,-0.0134,0.0026,45.56,5,1017.07,27.2,0,212004,19:58:03:996
-0.0222,-0.0316,-0.0239,45.56,5,1017.08,27.2,0,213004,19:58:04:996
-0.0214,0.0029,-0.0078,45.56,5,1017.08,27.2,0,214003,19:58:05:995
0.0162,-0.0192,-0.0061,45.56,5,1017.06,27.2,0,215004,19:58:06:996
-0.0081,-0.0584,-0.0351,45.56,5,1017.06,27.2,0,216003,19:58:07:995
0.0212,1.00E-04,0.0194,45.56,5,1017.06,27.2,0,217004,19:58:08:996
-0.0379,0.0173,0.0744,45.56,5,1017.05,27.2,0,218005,19:58:09:997
-0.0013,-0.0047,-0.0643,45.56,5,1017.09,27.2,0,219004,19:58:10:996
0.0309,-0.0692,-0.0596,45.56,5,1017.11,27.2,0,220004,19:58:11:996
0.0379,-0.0324,-0.0294,45.56,5,1017.12,27.2,0,221003,19:58:12:995
-0.0342,-0.0318,-0.0239,45.56,5,1017.08,27.2,0,222004,19:58:13:996
-0.0134,-0.0273,-0.0566,45.56,5,1017.09,27.2,0,223004,19:58:14:996
-0.0228,-0.0062,-0.0021,45.56,5,1017.11,27.2,0,224004,19:58:15:996
-0.0379,-0.0141,-0.012,45.56,5,1017.09,27.2,0,225003,19:58:16:995
0.0061,0.0105,0.0377,45.56,5,1017.1,27.2,0,226003,19:58:17:995
0.0114,-0.0833,-0.0352,45.56,5,1017.1,27.2,0,227004,19:58:18:996
0.0145,0.0101,0.0039,45.56,5,1017.1,27.2,0,228004,19:58:19:996
0.0228,-0.0289,-0.0351,45.56,5,1017.09,27.2,0,229004,19:58:20:996
-0.0255,0.0651,0.043,45.56,5,1017.06,27.2,0,230003,19:58:21:995
0.0302,0.0151,0.0407,45.56,5,1017.09,27.2,0,231003,19:58:22:995
0.0249,-0.0226,0.0302,45.56,5,1017.06,27.2,0,232004,19:58:23:996
0.0289,0.0076,-0.0413,45.56,5,1017.04,27.2,0,233003,19:58:24:995
0.0365,-0.0356,0.0768,45.56,5,1017.07,27.2,0,234004,19:58:25:996
-0.0372,-0.0028,-0.0338,45.56,5,1017.06,27.2,0,235004,19:58:26:996
-0.0386,-0.0092,0.0074,45.56,5,1017.07,27.2,0,236003,19:58:27:995
-0.0176,-0.0096,0.0422,45.56,5,1017.07,27.1,0,237003,19:58:28:995
0.0629,0.0415,-0.0155,45.56,5,1017.05,27.1,0,238004,19:58:29:996
0.0742,-0.011,0.0197,45.56,5,1017.04,27.1,0,239004,19:58:30:996
-0.0212,0.0743,0.0248,45.56,5,1017.05,27.1,0,240004,19:58:31:996
-0.0488,-0.0017,0.0422,45.56,5,1017.06,27.1,0,241003,19:58:32:995
0.0304,0.0028,0.0193,45.56,5,1017.04,27.1,0,242004,19:58:33:996
0.0111,0.0239,0.0695,45.56,5,1017.04,27.1,0,243004,19:58:34:996
-0.021,0.019,0.0446,45.56,5,1017.03,27.1,0,244003,19:58:35:995
0.0119,-0.0257,0.0057,45.56,5,1017.04,27.1,0,245004,19:58:36:996
0.0396,0.0174,0.0679,45.56,5,1017.06,27.1,0,246004,19:58:37:996
0.0122,-0.0438,0.0116,45.56,5,1017.05,27.1,0,247003,19:58:38:995
-0.0204,-0.0106,-0.0251,45.56,5,1017.05,27.1,0,248004,19:58:39:996
-0.0451,0.0164,-0.0206,45.56,5,1017.03,27.1,0,249003,19:58:40:995
0.0093,-0.0326,-0.0553,45.56,5,1017.05,27.1,0,250003,19:58:41:995
0.0048,0.0219,0.02,45.56,5,1017.05,27.1,0,251004,19:58:42:996
0.013,-0.0202,-0.0047,45.56,5,1017.05,27.1,0,252010,19:58:44:002
0.0489,-0.0311,-0.0324,45.56,5,1017.05,27.1,0,253004,19:58:44:996
0.0677,0.015,-0.0557,45.56,5,1017.07,27.1,0,254004,19:58:45:996
0.0273,0.0342,0.0612,45.56,5,1017.08,27.1,0,255004,19:58:46:996
-0.022,0.0015,0.0242,45.56,5,1017.08,27.1,0,256003,19:58:47:995
-0.0276,-0.0352,0.0073,45.56,5,1017.25,27.1,69.92,257004,19:58:48:996
-0.0014,0.0023,-3.00E-04,45.56,5,1017.17,27.1,53.187,258003,19:58:49:995
-0.0218,-0.0215,0.0052,45.56,5,1017.17,27.1,47.62,259004,19:58:50:996
-0.0545,0.0624,-0.0346,45.56,5,1017.18,27.1,54.643,260004,19:58:51:996
-0.0071,0.0364,0.0157,45.56,5,1017.15,27.1,51.729,261004,19:58:52:996
0.0654,0.0731,0.0133,45.56,5,1017.12,27.1,48.318,262004,19:58:53:996
-0.029,-0.0477,-0.0523,45.56,5,1017.12,27.1,51.719,263004,19:58:54:996
0.035,-0.0273,3.00E-04,45.56,5,1017.09,27.1,49.974,264003,19:58:55:995
-0.0418,-0.0611,-0.0045,45.56,5,1017.1,27.1,51.373,265004,19:58:56:996
0.0074,0.0031,0.003,45.56,5,1017.07,27.1,44.173,266004,19:58:57:996
-0.045,0.0052,-0.0598,45.56,5,1017.08,27.1,46.93,267004,19:58:58:996
0.0324,0.0337,-0.066,45.56,5,1017.08,27.1,55.553,268003,19:58:59:995
0.044,0.0147,0.0798,45.56,5,1017.11,27.1,62.834,269003,19:59:00:995
-0.0019,0.0072,0.0207,45.56,5,1017.13,27.1,58.656,270003,19:59:01:995
-0.0066,0.0499,-0.0628,45.56,5,1017.11,27.1,57.097,271004,19:59:02:996
-0.0208,0.0085,0.0567,45.56,5,1017.09,27.1,56.418,272004,19:59:03:996
-0.0338,0.0114,-0.0476,45.56,5,1017.07,27.1,53.552,273004,19:59:04:996
0.0178,-0.0205,-0.0107,45.56,5,1017.08,27.1,59.151,274004,19:59:05:996
-0.0411,0.0191,-0.0126,45.56,5,1017.08,27.1,59.955,275004,19:59:06:996
0.0275,-0.0409,-0.0514,45.56,5,1017.1,27.1,60.298,276003,19:59:07:995
0.0365,-0.0031,-0.038,45.56,5,1017.09,27.1,59.691,277004,19:59:08:996
-9.00E-04,-0.0068,0.0199,45.56,5,1017.07,27.1,58.924,278003,19:59:09:995
0.0488,-0.0036,-0.0335,45.56,5,1017.08,27.1,57.852,279004,19:59:10:996
0.0012,-0.0339,-0.1264,45.56,5,1017.07,27.1,56.999,280004,19:59:11:996
0.052,0.0043,-0.0129,45.56,5,1017.07,27.1,53.028,281004,19:59:12:996
-0.0482,-0.0053,0.0476,45.56,5,1017.07,27.1,57.018,282005,19:59:13:997
0.0493,-0.0488,0.01,45.56,5,1017.05,27.1,60.975,283004,19:59:14:996
0.0062,-0.0074,-0.0188,45.56,5,1017.07,27.1,54.352,284004,19:59:15:996
-0.0582,0.0152,-0.0181,45.56,5,1017.1,27.1,55.245,285004,19:59:16:996
0.0176,0.0013,-0.0018,45.56,5,1017.1,27.1,60.889,286004,19:59:17:996
-0.0194,0.0057,-0.0063,45.56,5,1017.11,27.1,56.89,287003,19:59:18:995
0.0171,0.0667,-0.0631,45.56,5,1017.08,27.1,60.24,288003,19:59:19:995
0.0418,-0.0275,0.0417,45.56,5,1017.08,27.1,59.449,289004,19:59:20:996
-0.0208,-0.0216,0.0203,45.56,5,1017.08,27.1,60.25,290004,19:59:21:996
0.0408,-0.0131,-0.0381,45.56,5,1017.1,27.1,57.611,291003,19:59:22:995
0.0271,-0.0126,-0.0943,45.56,5,1017.06,27.1,59.493,292004,19:59:23:996
-0.0269,-0.0369,-0.0616,45.56,5,1017.04,27.1,59.39,293003,19:59:24:995
0.0082,-0.0436,-0.0297,45.56,5,1017.24,27.1,59.741,294003,19:59:25:995
0.0549,-0.0213,0.0102,45.56,5,1017.56,27.1,58.699,295003,19:59:26:995
-0.0713,0.0218,-0.0547,45.56,5,1017.45,27.1,59.258,296004,19:59:27:996
1.00E-04,-0.0016,0.0408,45.56,5,1017.31,27.2,58.954,297004,19:59:28:996
-0.002,-0.0471,-0.1114,45.56,5,1017.19,27.2,58.803,298003,19:59:29:995
-0.0607,0.009,0.0113,45.56,5,1017.16,27.2,59.2,299004,19:59:30:996
-0.0505,0.0068,-0.0155,45.56,5,1017.16,27.2,61.074,300004,19:59:31:996
0.0098,0.0519,-0.0062,45.56,5,1017.11,27.2,61.53,301004,19:59:32:996
0,-0.0453,-0.0102,45.56,5,1017.09,27.2,59.679,302003,19:59:33:995
-0.0314,0.0108,0.0408,45.56,5,1017.06,27.2,54.272,303003,19:59:34:995
-0.0271,0.0404,0.0377,45.56,5,1017.02,27.2,51.061,304004,19:59:35:996
0.0199,0.0326,0.0083,45.56,5,1017.02,27.2,56.025,305004,19:59:36:996
0.0194,-0.0058,-0.0313,45.56,5,1017.01,27.2,55.236,306004,19:59:37:996
-0.0617,0.016,-0.0113,45.56,5,1017.01,27.2,57.363,307003,19:59:38:995
0.0424,-0.014,-0.0046,45.56,5,1017,27.1,56.318,308003,19:59:39:995
0.0293,-0.003,0.0224,45.56,5,1017.01,27.1,53.578,309004,19:59:40:996
0.014,0.0738,0.0728,45.56,5,1017.04,27.1,52.335,310004,19:59:41:996
0.0113,-0.0022,0.0501,45.56,5,1017.03,27.1,59.961,311004,19:59:42:996
-0.0317,-0.0601,-0.0683,45.56,5,1017.04,27.1,57.659,312003,19:59:43:995
-0.0076,-0.0137,-0.0103,45.56,5,1017.03,27.1,57.972,313004,19:59:44:996
-0.0032,-0.0131,-9.00E-04,45.56,5,1017.03,27.1,58.883,314004,19:59:45:996
0.044,-0.0234,-0.0081,45.56,5,1017.05,27.1,60.119,315003,19:59:46:995
-0.0033,-0.058,-0.0838,45.56,5,1017.02,27.1,60.449,316004,19:59:47:996
0.0051,0.0251,-0.0221,45.56,5,1017.03,27.1,60.696,317003,19:59:48:995
-0.0018,0.0115,0.029,45.56,5,1017.04,27.1,57.466,318003,19:59:49:995
-0.048,-0.0252,-0.0353,45.56,5,1017.16,27.1,63.456,319004,19:59:50:996
-0.0191,-0.0322,0.0355,45.56,5,1017.15,27.1,58.949,320004,19:59:51:996
0.0549,0.0143,-0.0947,45.56,5,1017.12,27.1,60.059,321003,19:59:52:995
-0.0105,-0.0138,-0.0052,45.56,5,1017.09,27.1,59.124,322004,19:59:53:996
-0.0398,-0.036,-0.0178,45.56,5,1017.05,27.1,62.06,323003,19:59:54:995
0.0071,0.0397,0.0091,45.56,5,1017.05,27.1,58.753,324004,19:59:55:996
-0.042,0.0197,-0.0314,45.56,5,1017.07,27.1,58.721,325004,19:59:56:996
0.0775,0.0277,0.0914,45.56,5,1017.03,27.1,61.445,326004,19:59:57:996
-0.008,0.0278,0.1204,45.56,5,1017.06,27.1,62.843,327003,19:59:58:995
0.0199,-0.0113,0.082,45.56,5,1017.07,27.1,60.333,328004,19:59:59:996
-0.0361,-0.0056,0.0296,45.56,5,1017.06,27.1,57.597,329004,20:00:00:996
-0.0247,0.0118,-0.0153,45.56,5,1017.05,27.1,59.263,330003,20:00:01:995
0.0798,0.0012,0.0205,45.56,5,1017.07,27.1,59.513,331004,20:00:02:996
-0.0188,0.0354,0.0259,45.56,5,1017.07,27.1,63.935,332004,20:00:03:996
0.0133,0.0139,0.0745,45.56,5,1017.07,27.1,57.954,333004,20:00:04:996
-0.0074,-0.0233,-0.0446,45.56,5,1017.08,27.1,61.821,334003,20:00:05:995
0.0069,0.0558,-0.0417,45.56,5,1017.1,27.1,62.548,335004,20:00:06:996
0.031,0.042,0.022,45.56,5,1017.08,27.1,61.472,336004,20:00:07:996
-0.047,-0.0411,-0.0077,45.56,5,1017.09,27.1,61.531,337004,20:00:08:996
-0.0156,-0.034,-0.0217,45.56,5,1017.09,27.1,62.7,338004,20:00:09:996
0.0034,0.0732,0.073,45.56,5,1017.14,27.1,60.219,339003,20:00:10:995
0.0202,0.0024,0.0264,45.56,5,1017.14,27.1,62.094,340004,20:00:11:996
-0.0302,0.0615,0.0052,45.56,5,1017.1,27.1,58.888,341004,20:00:12:996
0.0126,4.00E-04,0.0378,45.56,5,1017.09,27.1,64.772,342004,20:00:13:996
0.0775,0.0462,0.0381,45.56,5,1017.07,27.1,58.759,343003,20:00:14:995
0.0156,0.0203,-0.0896,45.56,5,1017.08,27.1,63.774,344003,20:00:15:995
0.0209,0.008,0.0478,45.56,5,1017.09,27.1,43.541,345004,20:00:16:996
-0.0575,-0.005,0.0938,45.56,5,1017.11,27.1,59.753,346004,20:00:17:996
0.0014,-0.0089,0.0659,45.56,5,1017.11,27.1,58.15,347003,20:00:18:995
-0.0383,-0.0024,-0.0284,45.56,5,1017.1,27.1,56.851,348004,20:00:19:996
-0.0036,-0.0049,0.0916,45.56,5,1017.08,27,57.973,349004,20:00:20:996
0.0352,0.004,-0.0176,45.56,5,1017.09,27,58.576,350004,20:00:21:996
-0.0434,0.0268,0.027,45.56,5,1017.09,27,58.058,351004,20:00:22:996
0.0678,-0.0109,0.0341,45.56,5,1017.09,27,58.741,352003,20:00:23:995
0.0311,-0.0028,0.0051,45.56,5,1017.09,27,58.28,353003,20:00:24:995
0.0186,0.0058,0.0367,45.56,5,1017.1,27,58.472,354003,20:00:25:995
0.013,1.00E-04,-0.0384,45.56,5,1017.1,27,54.507,355004,20:00:26:996
0.0224,-0.034,0.0132,45.56,5,1017.11,27,51.839,356004,20:00:27:996
0.003,-0.0052,0.0258,45.56,5,1017.08,27,57.552,357005,20:00:28:997
-0.0437,-0.0202,-0.0077,45.56,5,1017.09,27,60.322,358004,20:00:29:996
-0.0344,0.0031,0.0297,45.56,5,1017.08,27,53.367,359004,20:00:30:996
-0.0064,0.0142,0.0383,45.56,5,1017.08,27,58.873,360004,20:00:31:996
-0.0217,-0.0413,0.0014,45.56,5,1017.09,27,57.654,361004,20:00:32:996
-0.0228,-0.029,0.0201,45.56,5,1017.07,27,56.016,362004,20:00:33:996
-0.0069,0.0276,0.0808,45.56,5,1017.07,27,59.284,363004,20:00:34:996
0.0341,-0.0037,0.041,45.56,5,1017.06,27,59.279,364004,20:00:35:996
0.0209,0.0385,0.0541,45.56,5,1017.07,27,59.058,365003,20:00:36:995
0.0177,0.0372,-0.0153,45.56,5,1017.06,27,57.842,366004,20:00:37:996
0.0207,8.00E-04,-0.0409,45.56,5,1017.03,27,59.72,367004,20:00:38:996
-0.0846,-0.007,-0.0515,45.56,5,1017.05,27,60.461,368004,20:00:39:996
-0.0226,0.0029,0.0579,45.56,5,1017.07,27,60.051,369003,20:00:40:995
-0.045,-0.0456,-0.0442,45.56,5,1017.07,27,59.85,370004,20:00:41:996
-0.0179,0.0097,0.0496,45.56,5,1017.08,27,60.192,371004,20:00:42:996
-0.0151,-0.0296,0.0584,45.56,5,1017.08,27,61.16,372005,20:00:43:997
-0.0505,-0.0365,0.0379,45.56,5,1017.09,27,60.973,373004,20:00:44:996
-0.0154,0.0145,0.0197,45.56,5,1017.08,27,58.324,374004,20:00:45:996
0.0497,-5.00E-04,-0.0623,45.56,5,1017.09,27,60.43,375004,20:00:46:996
0.024,-0.0193,-0.0415,45.56,5,1017.07,27,59.94,376004,20:00:47:996
0.0329,-0.0187,-0.1221,45.56,5,1017.07,27,59.767,377004,20:00:48:996
-0.1138,-0.5377,-0.0084,45.56,5,1017.07,27,57.222,378004,20:00:49:996
0.0291,0.0414,-0.0067,45.56,5,1017.07,27,51.677,379004,20:00:50:996
0.0191,0.0076,-0.0203,45.56,5,1017.09,27,56.049,380004,20:00:51:996
-0.0192,-0.0115,-0.045,45.56,5,1017.09,27,55.936,381003,20:00:52:995
-0.0238,0.0221,-0.0016,45.56,5,1017.06,27,57.483,382003,20:00:53:995
0.0524,0.015,-0.0461,45.56,5,1017.08,27,56.326,383004,20:00:54:996
-0.0067,-0.0161,-0.0615,45.56,5,1017.03,27,57.029,384003,20:00:55:995
-0.043,0.0047,0.0237,45.56,5,1017.02,27,55.775,385004,20:00:56:996
-0.0859,0.0247,-0.0312,45.56,5,1017.03,27,56.199,386004,20:00:57:996
-0.0134,-0.0042,0.0106,45.56,5,1017.04,27,58.267,387003,20:00:58:995
-0.0165,-0.0837,-0.0865,45.56,5,1017.02,27,58.565,388004,20:00:59:996
-0.038,-0.0102,0.0503,45.56,5,1017.04,27,60.12,389004,20:01:00:996
0.0027,-0.0172,-0.0438,45.56,5,1017.06,27,60.411,390004,20:01:01:996
-0.0021,-0.0032,0.1137,45.56,5,1017.08,27,60.717,391003,20:01:02:995
0.039,-0.0137,-0.0057,45.56,5,1017.09,27,62.391,392004,20:01:03:996
0.0838,0.047,0.0385,45.56,5,1017.1,27,55.6,393003,20:01:04:995
-0.0146,0.0248,-0.017,45.56,5,1017.07,27,64.167,394004,20:01:05:996
0.0192,-0.0252,0.0072,45.56,5,1017.09,27,33.933,395004,20:01:06:996
0.0365,-0.0169,0.0103,45.56,5,1017.1,27,33.627,396004,20:01:07:996
-0.0119,-0.0274,-0.0088,45.56,5,1017.12,27,38.503,397004,20:01:08:996
0.0126,-0.0142,0.0266,45.56,5,1017.12,27,38.852,398003,20:01:09:995
0.0369,-0.0062,0.0978,45.56,5,1017.11,27,37.869,399003,20:01:10:995
0.0018,0.045,0.0452,45.56,5,1017.14,27,35.111,400004,20:01:11:996
0.0016,-0.019,-0.0597,45.56,5,1017.13,27,34.272,401004,20:01:12:996
0.0297,-0.0303,-0.0816,45.56,5,1017.13,27,36.097,402003,20:01:13:995
-0.0318,-0.0149,-0.035,45.56,5,1017.13,27,36.263,403004,20:01:14:996
-0.0165,0.0633,-0.0156,45.56,5,1017.13,27,36.424,404004,20:01:15:996
-0.0313,-0.0196,0.0446,45.56,5,1017.12,27,37.434,405004,20:01:16:996
0.049,0.004,0.0133,45.56,5,1017.11,27,38.443,406003,20:01:17:995
-0.0144,0.0056,0.0846,45.56,5,1017.1,27,36.28,407003,20:01:18:995
-0.0332,-0.0248,0.0771,45.56,5,1017.1,27,36.191,408003,20:01:19:995
-0.0186,0.0024,0.0018,45.56,5,1017.08,27,36.472,409004,20:01:20:996
0.0105,-0.0126,0.0368,45.56,5,1017.1,27,36.593,410004,20:01:21:996
0.0429,-0.0031,0.0544,45.56,5,1017.11,27,36.295,411003,20:01:22:995
0.0274,0.0143,-0.0015,45.56,5,1017.1,27,37.474,412004,20:01:23:996
-0.0095,-0.0052,0.0203,45.56,5,1017.1,27,36.37,413003,20:01:24:995
-0.0396,0.0364,-0.054,45.56,5,1017.1,27,39.081,414003,20:01:25:995
0.0355,0.0178,0.0182,45.56,5,1017.1,27,36.12,415004,20:01:26:996
-0.0051,0.037,0.0667,45.56,5,1017.09,27,36.175,416004,20:01:27:996
-0.0185,0.0296,0.0693,45.56,5,1017.08,27,36.39,417003,20:01:28:995
-0.0165,-0.041,0.035,45.56,5,1017.06,27,35.693,418003,20:01:29:995
0.0325,-0.0033,-0.0247,45.56,5,1017.05,27,34.728,419004,20:01:30:996
0.0317,-0.0094,-0.0528,45.56,5,1017.07,27,34.889,420004,20:01:31:996
0.0194,0.0015,-0.077,45.56,5,1017.07,27,34.742,421003,20:01:32:995
0.0053,0.0039,0.0173,45.56,5,1017.07,27,34.394,422004,20:01:33:996
-0.0384,-0.0094,0.0393,45.56,5,1017.05,27,33.466,423003,20:01:34:995
-0.0025,0.0493,-0.0257,45.56,5,1017.05,27,33.119,424004,20:01:35:996
-0.0081,-0.0665,-0.028,45.56,5,1017.09,27,34.191,425004,20:01:36:996
-0.0167,0.0064,0.0563,45.56,5,1017.09,27,33.914,426004,20:01:37:996
-0.0046,0.0518,0.0413,45.56,5,1017.1,27,33.307,427004,20:01:38:996
-0.0615,0.0071,0.0338,45.56,5,1017.08,27,33.102,428003,20:01:39:995
0.0321,0.0215,-0.0266,45.56,5,1017.11,27,35.042,429004,20:01:40:996
-0.0121,-0.0202,-0.022,45.56,5,1017.1,27,34.18,430003,20:01:41:995
-0.0508,-0.033,0.1077,45.56,5,1017.11,27,37.436,431004,20:01:42:996
-0.0243,-0.0047,0.0347,45.56,5,1017.1,27,34.382,432004,20:01:43:996
0.0155,0.0177,-0.0274,45.56,5,1017.09,27,37.062,433003,20:01:44:995
-0.0075,-0.0145,0.0379,45.56,5,1017.07,27,39.899,434004,20:01:45:996
0.037,-0.0165,0.0089,45.56,5,1017.08,27,50.065,435003,20:01:46:995
0.0119,0.0058,-0.0224,45.56,5,1017.08,27,54.138,436004,20:01:47:996
-0.0654,-0.0219,-0.0904,45.56,5,1017.09,27,52.773,437003,20:01:48:995
0.0131,-0.0222,-0.0379,45.56,5,1017.06,27,51.52,438004,20:01:49:996
-0.0496,0.0204,0.0335,45.56,5,1017.07,27,51.066,439004,20:01:50:996
0.0349,0.0073,-0.0609,45.56,5,1017.07,27,54.768,440003,20:01:51:995
-0.012,-0.0027,0.0233,45.56,5,1017.06,27,61.161,441004,20:01:52:996
0.0423,0.0036,0.0248,45.56,5,1017.04,27,54.936,442003,20:01:53:995
-0.0178,-0.0325,-0.0151,45.56,5,1017.02,27,54.98,443003,20:01:54:995
0.0051,-0.0333,0.0047,45.56,5,1017.04,27,57.852,444003,20:01:55:995
-0.0528,-0.0043,0.0069,45.56,5,1017.04,27,59.039,445004,20:01:56:996
-0.0269,0.0174,0.013,45.56,5,1017.02,27,56.744,446003,20:01:57:995
-0.0319,-0.0715,-0.0134,45.56,5,1017.04,26.9,59.529,447004,20:01:58:996
0.0429,-0.0326,-0.0405,45.56,5,1017.2,26.9,56.277,448003,20:01:59:995
0.0201,-0.0247,-0.0067,45.56,5,1017.21,27,53.222,449004,20:02:00:996
-0.0231,-0.0163,0.0545,45.56,5,1017.19,27,56.294,450003,20:02:01:995
-0.0637,0.0137,-0.0051,45.56,5,1017.16,27,57.126,451003,20:02:02:995
0.0475,0.0057,-0.0539,45.56,5,1017.17,27,56.786,452004,20:02:03:996
-0.0257,0.0449,-0.0652,45.56,5,1017.15,27,53.476,453004,20:02:04:996
-0.0273,-0.0175,0.0472,45.56,5,1017.14,27,53.113,454003,20:02:05:995
0.0273,-0.0516,0.0029,45.56,5,1017.13,27,55.806,455004,20:02:06:996
-0.0408,0.036,0.0426,45.56,5,1017.11,27,55.284,456003,20:02:07:995
0.0534,-0.0144,0.0597,45.56,5,1017.09,27,54.742,457004,20:02:08:996
-0.0174,0.0031,-0.1225,45.56,5,1017.08,27,59.195,458003,20:02:09:995
-0.0216,-0.0332,0.0571,45.56,5,1017.07,27,55.943,459004,20:02:10:996
-0.0018,0.0822,-0.0146,45.56,5,1017.07,27,51.167,460003,20:02:11:995
-0.0144,-1.00E-04,-0.0389,45.56,5,1017.06,27,46.668,461003,20:02:12:995
-0.0243,-0.0244,-0.0612,45.56,5,1017.06,27,56.057,462003,20:02:13:995
0.0131,-0.0493,-0.0734,45.56,5,1017.07,27,57.797,463004,20:02:14:996
0.0153,0.02,0.0336,45.56,5,1017.05,27,56.46,464004,20:02:15:996
0.0524,0.0072,0.0322,45.56,5,1017.06,27,52.608,465004,20:02:16:996
0.04,-0.0268,0.0489,45.56,5,1017.03,27,54.712,466003,20:02:17:995
-0.018,-0.0348,-0.0567,45.56,5,1017.04,27,52.269,467004,20:02:18:996
0.0168,0.0066,0.0133,45.56,5,1017.02,27,56.915,468004,20:02:19:996
0.0156,0.002,-0.0424,45.56,5,1017.02,27,50.993,469003,20:02:20:995
0.0043,-0.0067,-0.0378,45.56,5,1017.05,27,56.901,470004,20:02:21:996
-0.025,-0.017,-0.025,45.56,5,1017.07,27,52.559,471003,20:02:22:995
-0.0107,-0.0531,0.0167,45.56,5,1017.05,27,58.845,472004,20:02:23:996
-0.0342,0.0035,-0.0321,45.56,5,1017.07,27,52.162,473003,20:02:24:995
-0.0238,-0.0093,-0.0161,45.56,5,1017.05,26.9,55.655,474004,20:02:25:996
0.0366,0.0016,0.0169,45.56,5,1017.06,26.9,51.629,475004,20:02:26:996
0.0126,0.0098,0.0146,45.56,5,1017.06,26.9,59.141,476004,20:02:27:996
-0.0412,-0.0184,0.0509,45.56,5,1017.06,26.9,55.674,477003,20:02:28:995
0.0366,0.0193,-0.0132,45.56,5,1017.05,26.9,55.436,478003,20:02:29:995
-0.0208,0.0055,0.0296,45.56,5,1017.03,26.9,53.86,479004,20:02:30:996
0.0164,0.0049,0.0348,45.56,5,1017.11,26.9,56.776,480003,20:02:31:995
0.0175,-0.0352,-0.0597,45.56,5,1017.09,26.9,56.846,481004,20:02:32:996
-0.0134,-0.0305,-0.0304,45.56,5,1017.08,26.9,55.747,482003,20:02:33:995
0.0051,-0.0127,-0.0211,45.56,5,1017.07,26.9,56.804,483004,20:02:34:996
-0.0074,0.0434,-0.0594,45.56,5,1017.04,26.9,59.951,484004,20:02:35:996
-0.0076,-0.0154,-0.0141,45.56,5,1017.06,26.9,57.25,485003,20:02:36:995
-0.0203,0.0017,0.0452,45.56,5,1017.06,26.9,51.445,486003,20:02:37:995
-0.0211,0.0282,0.0436,45.56,5,1017.06,26.9,50.826,487004,20:02:38:996
0.0666,0.008,-0.0179,45.56,5,1017.05,26.9,51.787,488003,20:02:39:995
0.0071,0.0516,-0.0196,45.56,5,1017.05,26.9,51.229,489003,20:02:40:995
0.0183,-0.0101,0.0054,45.56,5,1017.05,26.9,50.644,490004,20:02:41:996
-0.0057,0.0411,0.0137,45.56,5,1017.06,26.9,57.507,491003,20:02:42:995
0.0023,0.041,-0.0237,45.56,5,1017.05,26.9,48.025,492004,20:02:43:996
0.0046,5.00E-04,0.0622,45.56,5,1017.06,26.9,46.309,493003,20:02:44:995
-0.0092,0.044,-0.0183,45.56,5,1017.07,26.9,48.566,494004,20:02:45:996
-0.024,-0.0043,-0.0202,45.56,5,1017.06,26.9,41.422,495004,20:02:46:996
0.0221,-0.0096,0.0408,45.56,5,1017.09,26.9,53.982,496003,20:02:47:995
0.0134,0.0359,-0.0537,45.56,5,1017.1,26.9,58.597,497004,20:02:48:996
0.0211,0.0175,-0.0273,45.56,5,1017.1,26.9,55.007,498004,20:02:49:996
0.03,-0.0274,-0.109,45.56,5,1017.09,26.9,54.564,499003,20:02:50:995
-0.0343,0.0244,0.0068,45.56,5,1017.12,26.9,54.226,500003,20:02:51:995
0.0432,-0.0415,0.0111,45.56,5,1017.12,26.9,52.329,501004,20:02:52:996
0.0301,0.0154,-0.01,45.56,5,1017.1,26.9,50.101,502004,20:02:53:996
0.0669,0.0247,-0.0052,45.56,5,1017.09,26.9,44.99,503004,20:02:54:996
0.0574,-0.0219,0.0409,45.56,5,1017.07,26.9,51.718,504004,20:02:55:996
0.0947,0.0016,0.0227,45.56,5,1017.08,26.9,49.816,505004,20:02:56:996
-0.025,-0.0452,-0.0126,45.56,5,1017.09,26.9,55.692,506004,20:02:57:996
0.0247,0.0343,-0.0132,45.56,5,1017.08,26.9,54.466,507003,20:02:58:995
0.0354,0.0142,0.0655,45.56,5,1017.07,26.9,52.295,508003,20:02:59:995
0.0559,-0.0042,-0.0175,45.56,5,1017.07,26.9,52.175,509003,20:03:00:995
-0.0257,0.0552,0.0411,45.56,5,1017.11,26.9,55.003,510004,20:03:01:996
-0.0475,-0.0188,-0.055,45.56,5,1017.12,26.9,58.705,511003,20:03:02:995
-0.0301,-0.0052,-0.0154,45.56,5,1017.11,26.9,61.452,512004,20:03:03:996
0.1002,0.0192,0.1113,45.56,5,1017.11,26.9,57.71,513003,20:03:04:995
0.0205,0.0172,-0.068,45.56,5,1017.12,26.9,55.007,514004,20:03:05:996
0.0138,0.003,-0.0014,45.56,5,1017.11,26.9,54.972,515004,20:03:06:996
-0.0175,-0.0045,-0.0212,45.56,5,1017.13,26.9,54.29,516004,20:03:07:996
-0.0147,-0.0141,0.035,45.56,5,1017.11,26.9,52.049,517004,20:03:08:996
0.0431,0.0067,0.0403,45.56,5,1017.11,26.9,57.545,518004,20:03:09:996
0.0437,0.0096,0.0355,45.56,5,1017.11,26.9,52.206,519004,20:03:10:996
0.015,-0.0516,-0.0634,45.56,5,1017.08,26.9,53.07,520004,20:03:11:996
0.0618,0.0015,-0.0087,45.56,5,1017.1,26.9,50.954,521004,20:03:12:996
0.0258,0.0533,0.0371,45.56,5,1017.09,26.9,58.767,522003,20:03:13:995
0.0149,-0.0219,-0.0495,45.56,5,1017.11,26.9,56.982,523004,20:03:14:996
0.0559,-0.0062,0.0773,45.56,5,1017.08,26.9,54.316,524004,20:03:15:996
0.0121,-0.0149,-0.0192,45.56,5,1017.11,26.9,59.325,525004,20:03:16:996
0.0535,-0.044,0.002,45.56,5,1017.11,26.9,57.089,526004,20:03:17:996
-0.0507,-0.027,0.0894,45.56,5,1017.1,26.9,57.243,527003,20:03:18:995
-0.0189,0.0392,-0.0347,45.56,5,1017.1,26.9,53.854,528003,20:03:19:995
-0.0048,-0.0549,0.0618,45.56,5,1017.13,26.9,56.067,529003,20:03:20:995
0.0239,0.017,0.013,45.56,5,1017.15,26.9,57.588,530004,20:03:21:996
0.0167,-0.0525,-0.0347,45.56,5,1017.13,26.9,52.182,531003,20:03:22:995
0.0229,-0.0159,-0.0365,45.56,5,1017.13,26.9,55.625,532005,20:03:23:997
-0.0265,-0.0105,0.0201,45.56,5,1017.13,26.9,56.401,533004,20:03:24:996
0.0318,-0.0444,0.0261,45.56,5,1017.12,26.9,55.273,534003,20:03:25:995
0.0601,0.0513,-0.0749,45.56,5,1017.13,26.9,56.585,535004,20:03:26:996
0.0357,-0.0273,0.0077,45.56,5,1017.1,26.9,53.459,536003,20:03:27:995
-0.0601,-0.034,-0.0715,45.56,5,1017.1,26.9,56.849,537004,20:03:28:996
-0.0237,0.0275,0.0397,45.56,5,1017.1,26.9,51.179,538003,20:03:29:995
0.0281,-0.0214,0.0431,45.56,5,1017.13,26.9,54.777,539003,20:03:30:995
0.0093,-0.0185,0.0853,45.56,5,1017.12,26.9,53.795,540004,20:03:31:996
-0.0321,0.0098,-0.0381,45.56,5,1017.1,26.9,53.524,541004,20:03:32:996
-0.038,0.0307,-0.0308,45.56,5,1017.09,26.9,58.714,542004,20:03:33:996
-0.0439,-0.0063,0.0334,45.56,5,1017.08,26.9,57.461,543003,20:03:34:995
-0.027,0,0.0138,45.56,5,1017.08,26.9,55.112,544003,20:03:35:995
0.0082,-0.013,-0.042,45.56,5,1017.09,26.9,57.427,545004,20:03:36:996
0.0177,0.0565,0.0097,45.56,5,1017.09,26.9,55.054,546004,20:03:37:996
0.0226,0.0089,-0.0418,45.56,5,1017.12,26.9,57.929,547004,20:03:38:996
0.0349,0.043,-0.0331,45.56,5,1017.09,26.9,56.402,548003,20:03:39:995
-0.0172,-0.0949,0.0566,45.56,5,1017.11,26.9,56.089,549003,20:03:40:995
0.0201,-0.0082,0.0079,45.56,5,1017.13,26.9,55.595,550004,20:03:41:996
0.011,-0.0109,0.0183,45.56,5,1017.1,26.9,58.18,551003,20:03:42:995
0.0105,0.0114,0.0136,45.56,5,1017.12,26.9,55.729,552003,20:03:43:995
0.0311,0.0177,0.0953,45.56,5,1017.12,26.9,57.154,553003,20:03:44:995
-0.048,0.0027,-0.0471,45.56,5,1017.11,26.9,57.901,554004,20:03:45:996
0.0276,0.0331,-0.0275,45.56,5,1017.11,26.9,55.065,555004,20:03:46:996
0.0056,-0.0689,-0.036,45.56,5,1017.11,26.9,54.617,556003,20:03:47:995
-0.0065,-0.0089,0.0123,45.56,5,1017.14,26.9,53.78,557003,20:03:48:995
0.0203,0.0479,-0.0367,45.56,5,1017.13,26.9,55.925,558004,20:03:49:996
-0.0059,0.0031,0.0224,45.56,5,1017.13,26.9,56.522,559003,20:03:50:995
-0.0274,-0.0383,-0.0041,45.56,5,1017.13,26.9,57.176,560003,20:03:51:995
-0.0054,0.005,-0.0082,45.56,5,1017.15,26.9,55.346,561003,20:03:52:995
-0.0203,-0.0253,-0.0243,45.56,5,1017.13,26.9,53.361,562004,20:03:53:996
0.0187,0.0199,0.0392,45.56,5,1017.12,26.9,51.459,563003,20:03:54:995
0.0464,-0.022,-0.0021,45.56,5,1017.11,26.9,55.715,564003,20:03:55:995
0.0777,-0.0095,-0.0478,45.56,5,1017.12,26.9,52.111,565004,20:03:56:996
-0.0623,0.0224,-0.0347,45.56,5,1017.13,26.9,56.009,566004,20:03:57:996
-0.0239,0.0225,0.0047,45.56,5,1017.11,26.9,52.433,567004,20:03:58:996
-0.0066,-0.0288,0.0316,45.56,5,1017.13,26.9,53.717,568003,20:03:59:995
-0.0089,0.0019,0.0621,45.56,5,1017.13,26.9,34.767,569004,20:04:00:996
0.0053,-0.0112,-0.0049,45.56,5,1017.14,26.9,45.303,570003,20:04:01:995
0.0667,-0.0161,0.0245,45.56,5,1017.15,26.9,36.163,571003,20:04:02:995
-0.0337,0.0032,-0.0158,45.56,5,1017.14,26.9,51.326,572004,20:04:03:996
-0.0705,0.0376,-0.0153,45.56,5,1017.12,26.9,42.782,573003,20:04:04:995
0.0886,-0.0022,-0.0381,45.56,5,1017.13,26.9,51.28,574003,20:04:05:995
-0.0577,-0.0073,-0.0083,45.56,5,1017.14,26.9,46.672,575004,20:04:06:996
-0.0025,-0.0105,-0.0632,45.56,5,1017.11,26.9,37.735,576003,20:04:07:995
0.0132,-8.00E-04,-0.011,45.56,5,1017.11,26.9,35.155,577003,20:04:08:995
0.0039,-0.0052,0.0301,45.56,5,1017.14,26.9,36.635,578004,20:04:09:996
-0.0399,0.0115,0.0019,45.56,5,1017.14,26.9,35.559,579003,20:04:10:995
0.0225,0.006,-0.0141,45.56,5,1017.11,26.9,37.239,580003,20:04:11:995
0.0468,-0.0022,0.0083,45.56,5,1017.1,26.9,34.468,581003,20:04:12:995
-0.0025,0.0367,0.0352,45.56,5,1017.07,26.9,35.345,582004,20:04:13:996
-0.042,0.0092,-0.0099,45.56,5,1017.09,26.9,45.476,583003,20:04:14:995
-0.0131,0.036,-0.0467,45.56,5,1017.11,26.9,36.106,584004,20:04:15:996
0.0316,0.0044,0.0719,45.56,5,1017.1,26.9,34.748,585003,20:04:16:995
0.0086,0.0074,-0.0146,45.56,5,1017.1,26.9,35.478,586003,20:04:17:995
0.0255,0.0272,0.015,45.56,5,1017.1,26.9,35.37,587004,20:04:18:996
-0.0553,-0.034,0.0453,45.56,5,1017.1,26.9,37.463,588003,20:04:19:995
-0.0441,0.0296,0.0234,45.56,5,1017.09,26.9,35.473,589004,20:04:20:996
-0.0264,0.0507,-0.0103,45.56,5,1017.11,26.9,34.76,590003,20:04:21:995
-0.0144,-4.00E-04,-0.0226,45.56,5,1017.11,26.9,35.446,591004,20:04:22:996
0.0249,0.0277,-0.0467,45.56,5,1017.11,26.9,34.095,592004,20:04:23:996
0.0136,0.0767,-0.0759,45.56,5,1017.09,26.9,35.82,593004,20:04:24:996
0.0446,-0.0308,0.0566,45.56,5,1017.1,26.9,34.794,594003,20:04:25:995
0.0178,0.0217,-0.0293,45.56,5,1017.1,26.9,34.479,595004,20:04:26:996
-0.0753,0.0391,0.0318,45.56,5,1017.1,26.9,48.773,596004,20:04:27:996
0.0181,0.008,-0.045,45.56,5,1017.11,26.9,38.073,597004,20:04:28:996
-0.0065,-0.0292,0.0342,45.56,5,1017.11,26.9,36.151,598003,20:04:29:995
0.01,-0.0097,-0.0495,45.56,5,1017.13,26.9,33.618,599004,20:04:30:996
-0.007,-0.0411,0.0716,45.56,5,1017.11,26.9,34.618,600004,20:04:31:996
-0.0118,0.0118,0.0224,45.56,5,1017.12,26.9,33.842,601004,20:04:32:996
0.0155,-0.024,0.0631,45.56,5,1017.13,26.9,34.353,602004,20:04:33:996
-0.0227,0.0109,0.0752,45.56,5,1017.14,26.9,34.072,603004,20:04:34:996
-0.0012,0.032,0.0424,45.56,5,1017.13,26.8,34.016,604004,20:04:35:996
0.0021,-0.052,-0.0198,45.56,5,1017.17,26.8,34.34,605004,20:04:36:996
-0.006,-0.0012,-0.006,45.56,5,1017.15,26.8,33.455,606004,20:04:37:996
-0.064,0.0484,0.0163,45.56,5,1017.14,26.9,32.882,607004,20:04:38:996
-0.0421,0.0163,0.0581,45.56,5,1017.15,26.9,38.441,608004,20:04:39:996
-0.0103,0.0328,-0.0064,45.56,5,1017.13,26.8,33.485,609003,20:04:40:995
-0.0012,0.0478,0.0045,45.56,5,1017.14,26.8,32.008,610004,20:04:41:996
0.0903,0.0227,0.0245,45.56,5,1017.15,26.8,33.056,611003,20:04:42:995
0.0103,-0.0143,-0.0564,45.56,5,1017.14,26.8,33.684,612005,20:04:43:997
0.0244,0.0507,-0.0284,45.56,5,1017.13,26.8,33.292,613004,20:04:44:996
-0.0271,0.0404,-0.0163,45.56,5,1017.14,26.8,32.24,614004,20:04:45:996
-0.0153,-0.005,-0.0105,45.56,5,1017.13,26.8,33.433,615004,20:04:46:996
-0.0012,-0.0368,-4.00E-04,45.56,5,1017.13,26.9,32.916,616004,20:04:47:996
-0.0525,-0.0031,-0.0316,45.56,5,1017.12,26.8,33.763,617005,20:04:48:997
0.0532,-0.0232,0.0047,45.56,5,1017.1,26.8,33.836,618004,20:04:49:996
0.0053,-0.0091,0.0385,45.56,5,1017.1,26.8,33.391,619003,20:04:50:995
-0.0403,0.0102,0.0303,45.56,5,1017.1,26.8,35.369,620003,20:04:51:995
0.0218,-0.0515,0.0319,45.56,5,1017.09,26.8,33.012,621004,20:04:52:996
0.0185,-0.0044,0.0254,45.56,5,1017.1,26.8,34.08,622004,20:04:53:996
0.0092,0.0119,0.0866,45.56,5,1017.1,26.8,33.853,623003,20:04:54:995
-0.0104,-0.0118,-0.0459,45.56,5,1017.07,26.8,34.931,624003,20:04:55:995
-0.0066,0.0707,0.0202,45.56,5,1017.09,26.8,35.97,625004,20:04:56:996
-0.043,-0.0076,-0.0632,45.56,5,1017.1,26.8,34.598,626003,20:04:57:995
0.0077,0.0116,-0.0484,45.56,5,1017.1,26.8,35.809,627004,20:04:58:996
-0.0671,-0.0276,0.0486,45.56,5,1017.09,26.8,34.917,628004,20:04:59:996
-0.0018,-0.0631,0.0633,45.56,5,1017.07,26.8,34.785,629004,20:05:00:996
-0.0234,0.0199,0.0221,45.56,5,1017.08,26.8,36.416,630003,20:05:01:995
-0.0027,-0.0251,0.0182,45.56,5,1017.09,26.8,36.264,631004,20:05:02:996
0.0255,0.0154,-0.0427,45.56,5,1017.07,26.8,36.175,632004,20:05:03:996
-0.0434,-0.0081,0.0375,45.56,5,1017.08,26.8,35.168,633003,20:05:04:995
0.0373,0.0107,0.0559,45.56,5,1017.1,26.8,35.424,634003,20:05:05:995
-0.0125,6.00E-04,-0.0329,45.56,5,1017.11,26.8,35.071,635004,20:05:06:996
-0.0126,0.032,0.0409,45.56,5,1017.14,26.8,34.857,636003,20:05:07:995
-0.0129,0.023,0.0173,45.56,5,1017.12,26.8,35.551,637004,20:05:08:996
-0.0028,0.0479,-0.0441,45.56,5,1017.14,26.8,34.745,638004,20:05:09:996
-0.0167,0.0035,-0.0389,45.56,5,1017.12,26.8,34.938,639003,20:05:10:995
0.0227,-0.0054,-0.0399,45.56,5,1017.12,26.8,35,640003,20:05:11:995
0.0015,-0.0179,-0.0391,45.56,5,1017.12,26.8,35.427,641003,20:05:12:995
0.0541,-0.0474,-0.0334,45.56,5,1017.14,26.8,35.672,642004,20:05:13:996
0.0262,0.0344,0.0149,45.56,5,1017.14,26.8,36.694,643003,20:05:14:995
-0.0555,-0.036,-0.004,45.56,5,1017.14,26.8,35.445,644004,20:05:15:996
-0.0302,-0.0175,-0.0969,45.56,5,1017.15,26.8,35.571,645003,20:05:16:995
-0.0074,0.027,0.0278,45.56,5,1017.21,26.8,36.027,646004,20:05:17:996
-0.0323,0.0366,0.0284,45.56,5,1017.19,26.8,34.605,647003,20:05:18:995
0.0259,0.0289,0.0022,45.56,5,1017.2,26.8,35.29,648003,20:05:19:995
0.0116,-0.0026,-0.0355,45.56,5,1017.15,26.8,35.93,649004,20:05:20:996
0.0337,0.0283,0.0859,45.56,5,1017.14,26.8,34.977,650004,20:05:21:996
-0.0063,-0.0071,8.00E-04,45.56,5,1017.15,26.8,35.176,651004,20:05:22:996
0.0435,-0.0276,0.0146,45.56,5,1017.14,26.8,35.085,652004,20:05:23:996
-0.0115,-0.0171,-0.0145,45.56,5,1017.15,26.8,35.234,653004,20:05:24:996
0.0043,-0.0379,0.0381,45.56,5,1017.16,26.8,35.63,654003,20:05:25:995
0.0022,-0.017,-0.0335,45.56,5,1017.16,26.8,35.757,655003,20:05:26:995
-0.0103,-0.0387,0.0162,45.56,5,1017.14,26.8,35.117,656004,20:05:27:996
0.0048,0.0303,0.0327,45.56,5,1017.13,26.8,35.365,657003,20:05:28:995
-0.0079,-0.0098,0.0556,45.56,5,1017.14,26.8,35.181,658004,20:05:29:996
-0.0668,0.0169,0.0697,45.56,5,1017.13,26.8,35.428,659003,20:05:30:995
-0.0136,0.0019,0.0104,45.56,5,1017.13,26.8,35.155,660004,20:05:31:996
-0.0484,0.0077,0.0407,45.56,5,1017.11,26.8,36.174,661004,20:05:32:996
0.014,-0.0227,0.0295,45.56,5,1017.1,26.8,35.16,662004,20:05:33:996
-0.0482,0.0407,-0.0963,45.56,5,1017.09,26.8,35.204,663005,20:05:34:997
-0.0352,-0.0052,-0.0284,45.56,5,1017.08,26.8,35.768,664004,20:05:35:996
0.0309,0.0302,0.0165,45.56,5,1017.08,26.8,35.126,665004,20:05:36:996
0.0466,0.024,0.0281,45.56,5,1017.1,26.8,35.266,666003,20:05:37:995
0.0141,-0.0232,-0.0191,45.56,5,1017.18,26.8,34.456,667004,20:05:38:996
-0.0564,0.0077,-0.0251,45.56,5,1017.13,26.8,35.277,668003,20:05:39:995
0.0156,-0.003,0.0258,45.56,5,1017.13,26.8,38.082,669004,20:05:40:996
-0.0064,0.0373,0.0634,45.56,5,1017.12,26.8,35.129,670004,20:05:41:996
0.0059,-0.0208,0.0333,45.56,5,1017.1,26.8,40.536,671003,20:05:42:995
0.014,0.0168,0.0012,45.56,5,1017.09,26.8,39,672004,20:05:43:996
0.0056,-0.0103,-0.0042,45.56,5,1017.12,26.8,35.801,673004,20:05:44:996
-0.0084,0.0168,0.0664,45.56,5,1017.07,26.8,35.344,674004,20:05:45:996
0.0039,0.0095,-0.0104,45.56,5,1017.11,26.8,36.128,675004,20:05:46:996
-0.0385,-0.0109,-0.0335,45.56,5,1017.11,26.8,34.723,676003,20:05:47:995
-0.0219,0.0018,0.0051,45.56,5,1017.14,26.8,34.707,677004,20:05:48:996
-0.0203,0.0163,0.0028,45.56,5,1017.15,26.8,34.645,678003,20:05:49:995
0.0292,-0.0166,0.0352,45.56,5,1017.16,26.8,34.863,679003,20:05:50:995
0.0295,-0.0151,0.0109,45.56,5,1017.17,26.8,33.761,680003,20:05:51:995
0.0118,-0.0219,0.0063,45.56,5,1017.17,26.8,34.191,681004,20:05:52:996
0.0219,-0.0113,-0.0244,45.56,5,1017.15,26.8,34.455,682004,20:05:53:996
-0.0109,0.0102,-0.0569,45.56,5,1017.13,26.8,34.314,683003,20:05:54:995
-0.0106,0.0101,0.0364,45.56,5,1017.13,26.8,34.853,684004,20:05:55:996
0.001,-0.0083,0.0282,45.56,5,1017.11,26.8,34.081,685003,20:05:56:995
-0.0061,0.0075,0.0511,45.56,5,1017.1,26.8,34.916,686004,20:05:57:996
-0.0115,-0.071,-0.0224,45.56,5,1017.08,26.8,35.205,687004,20:05:58:996
0.0391,0.0084,0.0012,45.56,5,1017.09,26.8,35.468,688004,20:05:59:996
-0.019,0.0083,-0.0189,45.56,5,1017.09,26.8,34.122,689003,20:06:00:995
-0.0072,0.0609,0.0129,45.56,5,1017.07,26.8,34.755,690004,20:06:01:996
0.0314,-0.0064,-0.0689,45.56,5,1017.07,26.8,36.358,691004,20:06:02:996
-0.0232,-0.0713,0.0394,45.56,5,1017.06,26.8,36.457,692004,20:06:03:996
0.0178,-0.0533,-0.0273,45.56,5,1017.09,26.8,35.865,693003,20:06:04:995
-0.0023,0.0379,-0.0828,45.56,5,1017.08,26.8,36.661,694004,20:06:05:996
-0.0228,-0.0041,0.0125,45.56,5,1017.08,26.8,35.394,695004,20:06:06:996
-0.0414,0.0483,0.0228,45.56,5,1017.09,26.8,35.999,696003,20:06:07:995
-0.0211,-0.04,0.007,45.56,5,1017.1,26.8,37.123,697003,20:06:08:995
-0.0166,-0.0279,0.0587,45.56,5,1017.1,26.8,35.803,698003,20:06:09:995
-0.0181,-0.0096,0.0547,45.56,5,1017.1,26.8,35.911,699003,20:06:10:995
0.0211,0.009,-0.0574,45.56,5,1017.11,26.8,35.731,700004,20:06:11:996
0.0551,-0.0086,0.0888,45.56,5,1017.11,26.8,35.748,701004,20:06:12:996
0.0077,0.022,-0.0014,45.56,5,1017.1,26.8,35.227,702004,20:06:13:996
-0.0242,-0.0273,-0.0323,45.56,5,1017.11,26.8,36.662,703004,20:06:14:996
-0.0106,-0.0092,0.0165,45.56,5,1017.11,26.8,34.962,704004,20:06:15:996
0.019,0.0078,0.0325,45.56,5,1017.1,26.8,36.618,705004,20:06:16:996
-0.0151,0.0033,-0.0225,45.56,5,1017.13,26.8,35.212,706004,20:06:17:996
0.0298,-0.0018,0.0505,45.56,5,1017.12,26.8,34.197,707004,20:06:18:996
0.0172,0.0214,0.0459,45.56,5,1017.1,26.8,34.397,708004,20:06:19:996
-0.0235,0.0305,0.0031,45.56,5,1017.13,26.8,34.095,709004,20:06:20:996
-0.0127,0.0332,0.0726,45.56,5,1017.12,26.8,34.173,710004,20:06:21:996
1.00E-04,0.0245,-0.0196,45.56,5,1017.11,26.8,31.509,711004,20:06:22:996
-0.0137,-0.0102,0.0082,45.56,5,1017.13,26.8,31.357,712004,20:06:23:996
0.028,-0.0057,0.0359,45.56,5,1017.14,26.8,33.74,713003,20:06:24:995
-0.0152,-0.0223,0.0104,45.56,5,1017.13,26.8,33.067,714004,20:06:25:996
0.0027,-0.0229,-0.025,45.56,5,1017.1,26.8,32.753,715003,20:06:26:995
-0.0018,0.0467,-0.0505,45.56,5,1017.08,26.8,34.369,716004,20:06:27:996
0.0923,0.012,0.0014,45.56,5,1017.09,26.8,34.846,717004,20:06:28:996
-0.0438,0.0199,-0.0383,45.56,5,1017.1,26.8,35.107,718004,20:06:29:996
0.0022,-0.0374,-0.041,45.56,5,1017.09,26.8,36.314,719003,20:06:30:995
-0.0355,-0.0244,0.0374,45.56,5,1017.09,26.8,36.438,720004,20:06:31:996
0.0065,-0.0698,-0.0099,45.56,5,1017.11,26.8,38.96,721003,20:06:32:995
-0.0066,-0.0077,-0.0552,45.56,5,1017.11,26.8,43.389,722004,20:06:33:996
-0.0136,0.0232,0.0555,45.56,5,1017.12,26.8,44.398,723004,20:06:34:996
-0.0553,0.0113,-0.0216,45.56,5,1017.13,26.8,35.995,724004,20:06:35:996
-0.0344,-0.0059,-0.0161,45.56,5,1017.14,26.8,33.247,725003,20:06:36:995
-2.00E-04,0.0157,0.0358,45.56,5,1017.14,26.8,32.235,726004,20:06:37:996
0.0131,0.0124,-0.0055,45.56,5,1017.14,26.8,36.68,727003,20:06:38:995
0.0193,-0.0109,-0.0637,45.56,5,1017.16,26.8,32.862,728004,20:06:39:996
-0.0133,-0.0105,0.114,45.56,5,1017.17,26.8,32.426,729004,20:06:40:996
0.0431,-0.0036,-0.0206,45.56,5,1017.14,26.8,34.044,730004,20:06:41:996
0.0106,-0.0107,-0.0012,45.56,5,1017.15,26.8,33.825,731004,20:06:42:996
0.0359,-0.0037,-0.0254,45.56,5,1017.17,26.8,33.655,732004,20:06:43:996
0.0212,-0.0369,0.0249,45.56,5,1017.16,26.8,34.505,733003,20:06:44:995
0.0074,-0.0016,-0.0488,45.56,5,1017.14,26.8,35.362,734003,20:06:45:995
0.0512,0.001,0.0153,45.56,5,1017.12,26.8,37.529,735003,20:06:46:995
-0.014,0.0915,0.0454,45.56,5,1017.12,26.8,37.096,736004,20:06:47:996
0.0101,-0.0396,0.0069,45.56,5,1017.13,26.8,37.926,737004,20:06:48:996
0.0021,-0.0193,0.0389,45.56,5,1017.14,26.8,35.878,738004,20:06:49:996
-0.0039,0.021,-0.0044,45.56,5,1017.11,26.8,36.967,739004,20:06:50:996
0.0086,0.0553,-0.06,45.56,5,1017.14,26.8,37.201,740004,20:06:51:996
-0.0401,-0.0158,-0.0119,45.56,5,1017.15,26.8,37.993,741003,20:06:52:995
-0.0441,-0.0068,0.0092,45.56,5,1017.12,26.8,35.309,742004,20:06:53:996
0.0265,0.0076,-0.0036,45.56,5,1017.11,26.8,36.106,743003,20:06:54:995
0.0173,-0.0313,0.0611,45.56,5,1017.1,26.8,31.632,744003,20:06:55:995
-0.0232,0.0235,-0.0266,45.56,5,1017.09,26.8,31.725,745003,20:06:56:995
0.0156,-0.0177,-0.0146,45.56,5,1017.18,26.8,33.123,746003,20:06:57:995
0.0137,0.0686,0.0033,45.56,5,1017.23,26.8,33.587,747003,20:06:58:995
-0.0412,-9.00E-04,-0.0474,45.56,5,1017.22,26.8,32.404,748003,20:06:59:995
0.033,0.0406,0.0221,45.56,5,1017.2,26.8,32.594,749003,20:07:00:995
-0.0412,-0.0314,-0.0517,45.56,5,1017.17,26.8,33.349,750004,20:07:01:996
-0.0439,-0.0167,-0.0434,45.56,5,1017.15,26.8,34.846,751004,20:07:02:996
0.0101,0.0077,-0.1508,45.56,5,1017.14,26.8,34.325,752004,20:07:03:996
0.0218,0.0409,-0.0444,45.56,5,1017.14,26.8,34.634,753004,20:07:04:996
0.043,0.0055,0.0759,45.56,5,1017.12,26.8,37.454,754004,20:07:05:996
0.0049,0.0113,-0.0057,45.56,5,1017.12,26.8,34.842,755004,20:07:06:996
-0.0358,-0.0109,0.042,45.56,5,1017.13,26.8,35.1,756004,20:07:07:996
0.0226,0.0122,0.1029,45.56,5,1017.13,26.8,36.041,757004,20:07:08:996
-0.0086,-0.0254,-7.00E-04,45.56,5,1017.12,26.8,35.892,758003,20:07:09:995
-0.0042,0.0023,-0.0237,45.56,5,1017.17,26.8,34.248,759004,20:07:10:996
0.0419,0.0042,0.0833,45.56,5,1017.16,26.8,34.155,760004,20:07:11:996
-0.013,0.0266,0.0015,45.56,5,1017.17,26.8,35.549,761003,20:07:12:995
-0.0123,0.0148,0.0867,45.56,5,1017.16,26.8,35.964,762003,20:07:13:995
-0.0265,-0.0093,7.00E-04,45.56,5,1017.14,26.8,34.965,763004,20:07:14:996
0.0332,0.0238,0.0466,45.56,5,1017.16,26.8,34.247,764003,20:07:15:995
-0.0297,0.0278,0.0435,45.56,5,1017.15,26.8,33.62,765004,20:07:16:996
-0.0064,-0.0244,-0.0576,45.56,5,1017.16,26.8,34.235,766004,20:07:17:996
0.0274,0.0285,0.0082,45.56,5,1017.15,26.8,32.295,767003,20:07:18:995
0.0127,-0.0074,0.0268,45.56,5,1017.15,26.8,33.889,768003,20:07:19:995
0.0096,-0.0358,-0.0405,45.56,5,1017.11,26.8,32.351,769003,20:07:20:995
-0.0032,0.0067,-0.0368,45.56,5,1017.14,26.8,33.553,770003,20:07:21:995
-0.0452,-0.0366,0.0458,45.56,5,1017.11,26.8,34.884,771003,20:07:22:995
0.0019,0.0418,0.0573,45.56,5,1017.11,26.8,34.58,772004,20:07:23:996
-0.0148,0.0021,0.0315,45.56,5,1017.1,26.8,35.274,773004,20:07:24:996
-0.0125,-0.0302,0.0209,45.56,5,1017.11,26.8,35.195,774003,20:07:25:995
0.0111,-0.007,-0.0353,45.56,5,1017.09,26.8,35.624,775004,20:07:26:996
-0.0263,0.0071,0.0602,45.56,5,1017.08,26.8,36.061,776003,20:07:27:995
0.0107,0.0217,-0.0153,45.56,5,1017.08,26.8,36.47,777004,20:07:28:996
-0.0436,-0.0086,-0.022,45.56,5,1017.13,26.8,36.36,778004,20:07:29:996
-0.0153,0.0234,-0.0431,45.56,5,1017.12,26.8,36.033,779004,20:07:30:996
0.0222,-0.0215,9.00E-04,45.56,5,1017.31,26.8,35.801,780003,20:07:31:995
0.0354,0.0109,-0.0122,45.56,5,1017.35,26.8,36.2,781004,20:07:32:996
0.0135,-0.0505,-0.0297,45.56,5,1017.29,26.8,34.176,782003,20:07:33:995
0.0604,0.017,-0.0352,45.56,5,1017.25,26.8,35.737,783004,20:07:34:996
0.0619,-0.0123,-0.0242,45.56,5,1017.18,26.8,34.095,784004,20:07:35:996
-0.0575,-0.0343,-0.0101,45.56,5,1017.2,26.8,33.78,785004,20:07:36:996
-0.0275,-0.0102,0.0877,45.56,5,1017.17,26.8,33.022,786004,20:07:37:996
-0.0176,-0.0296,-0.0179,45.56,5,1017.15,26.8,32.281,787004,20:07:38:996
0.0297,-0.0012,0.0796,45.56,5,1017.12,26.8,33.755,788004,20:07:39:996
0.0113,-0.0279,-0.0226,45.56,5,1017.12,26.8,31.365,789004,20:07:40:996
-0.0456,0.0483,-0.0018,45.56,5,1017.13,26.8,33.69,790004,20:07:41:996
-0.0241,0.0269,0.0288,45.56,5,1017.15,26.8,33.609,791004,20:07:42:996
0.0276,-0.0506,0.0446,45.56,5,1017.15,26.8,33.945,792004,20:07:43:996
-0.0328,-0.0107,0.0187,45.56,5,1017.13,26.8,34.167,793004,20:07:44:996
-0.0316,-0.0191,-0.0231,45.56,5,1017.13,26.8,35.285,794003,20:07:45:995
-0.0528,-0.0758,-0.0636,45.56,5,1017.13,26.8,35.528,795004,20:07:46:996
-0.0295,0.0176,-0.0424,45.56,5,1017.15,26.8,35.72,796003,20:07:47:995
-0.031,-0.0227,0.0492,45.56,5,1017.13,26.8,35.796,797003,20:07:48:995
0.0079,0.0604,0.0295,45.56,5,1017.12,26.8,35.907,798004,20:07:49:996
0.0116,0.0208,-0.0801,45.56,5,1017.11,26.8,36.818,799004,20:07:50:996
0.0124,-0.015,-0.1274,45.56,5,1017.13,26.8,36.872,800004,20:07:51:996
0.029,0.0139,0.0623,45.56,5,1017.13,26.8,36.539,801004,20:07:52:996
0.0171,0.0055,-0.014,45.56,5,1017.13,26.8,35.547,802004,20:07:53:996
-0.0282,0.0202,0.0611,45.56,5,1017.12,26.8,34.998,803004,20:07:54:996
0.047,-0.0192,0.0188,45.56,5,1017.12,26.8,33.713,804003,20:07:55:995
-0.0649,0.0347,-0.0868,45.56,5,1017.14,26.8,33.573,805003,20:07:56:995
0.0623,0.0063,-0.0296,45.56,5,1017.14,26.8,35.036,806003,20:07:57:995
-0.0603,0.0166,-3.00E-04,45.56,5,1017.16,26.8,33.586,807003,20:07:58:995
0.0496,0.0137,0.0257,45.56,5,1017.14,26.8,32.292,808003,20:07:59:995
-0.0123,0.0155,0.0532,45.56,5,1017.16,26.8,32.637,809004,20:08:00:996
0.0035,0.0475,0.124,45.56,5,1017.14,26.8,33.077,810003,20:08:01:995
0.0365,-0.0219,-0.0103,45.56,5,1017.13,26.8,33.313,811004,20:08:02:996
-0.0308,-0.0101,-0.0305,45.56,5,1017.16,26.8,33.013,812004,20:08:03:996
0.0071,-0.0494,-0.027,45.56,5,1017.17,26.8,35.046,813004,20:08:04:996
-0.0479,-0.0181,-0.0029,45.56,5,1017.13,26.8,35.354,814004,20:08:05:996
0.0219,0.0359,0.0571,45.56,5,1017.15,26.8,35.159,815004,20:08:06:996
0.0306,-0.0591,-0.0048,45.56,5,1017.15,26.8,35.412,816004,20:08:07:996
0.0075,0.032,-0.058,45.56,5,1017.15,26.8,35.464,817003,20:08:08:995
0.0027,-0.0446,-0.0387,45.56,5,1017.17,26.8,35.49,818004,20:08:09:996
0.0075,-0.0065,-0.096,45.56,5,1017.17,26.8,36.695,819003,20:08:10:995
-0.0634,-0.0069,0.0592,45.56,5,1017.17,26.8,35.663,820004,20:08:11:996
0.0073,-0.0135,-0.1083,45.56,5,1017.16,26.8,35.971,821004,20:08:12:996
-0.0133,-0.0175,0.0582,45.56,5,1017.13,26.8,35.774,822004,20:08:13:996
-0.0162,0.0445,0.0564,45.56,5,1017.15,26.8,35.326,823003,20:08:14:995
0.0257,0.068,0.0672,45.56,5,1017.17,26.8,35.696,824004,20:08:15:996
0.0548,0.0401,0.016,45.56,5,1017.15,26.8,35.465,825003,20:08:16:995
0.018,0.0267,0.0509,45.56,5,1017.18,26.8,35.398,826003,20:08:17:995
0.0388,-0.0203,0.109,45.56,5,1017.19,26.8,34.762,827004,20:08:18:996
-0.0077,-0.005,0.0253,45.56,5,1017.17,26.8,35.473,828004,20:08:19:996
-0.0447,-0.0094,0.0335,45.56,5,1017.18,26.8,34.531,829004,20:08:20:996
-0.0762,0.0167,-0.0309,45.56,5,1017.16,26.8,33.924,830004,20:08:21:996
-0.0139,-0.0319,0.0027,45.56,5,1017.18,26.8,34.61,831003,20:08:22:995
-0.0059,-0.0384,-0.0364,45.56,5,1017.21,26.8,36.476,832003,20:08:23:995
0.0283,-0.0627,-0.0064,45.56,5,1017.22,26.8,34.623,833004,20:08:24:996
0.0131,-0.0123,0.0617,45.56,5,1017.18,26.8,34.132,834003,20:08:25:995
-0.0203,0.0434,-0.0786,45.56,5,1017.16,26.8,36.204,835004,20:08:26:996
0.0023,-0.0174,-0.0309,45.56,5,1017.17,26.8,32.518,836004,20:08:27:996
-0.0298,0.013,-0.0313,45.56,5,1017.13,26.8,32.717,837004,20:08:28:996
-0.033,0.012,-0.0647,45.56,5,1017.16,26.8,34.493,838004,20:08:29:996
0.0144,-0.0057,-0.0173,45.56,5,1017.18,26.8,33.679,839003,20:08:30:995
0.0216,-0.0043,0.0191,45.56,5,1017.2,26.8,33.939,840004,20:08:31:996
-0.0053,0.0145,-0.006,45.56,5,1017.18,26.8,34.218,841003,20:08:32:995
-0.0297,0.0181,0.0114,45.56,5,1017.15,26.8,32.362,842003,20:08:33:995
-0.0079,-0.0311,0.0413,45.56,5,1017.12,26.8,32.573,843003,20:08:34:995
-0.0163,0.0652,0.0071,45.56,5,1017.12,26.8,34.53,844004,20:08:35:996
0.0257,0.0186,-0.0358,45.56,5,1017.15,26.8,32.833,845004,20:08:36:996
0.0147,-0.0061,0.0372,45.56,5,1017.14,26.8,33.27,846004,20:08:37:996
0.0621,0.0032,0.0372,45.56,5,1017.15,26.8,33.802,847003,20:08:38:995
0.0114,0.0245,0.0751,45.56,5,1017.27,26.8,32.66,848004,20:08:39:996
-0.0316,-0.0702,0.0056,45.56,5,1017.23,26.8,34.646,849003,20:08:40:995
-0.037,-0.0111,-0.0346,45.56,5,1017.21,26.8,33.178,850004,20:08:41:996
0.0082,-0.0076,-0.0303,45.56,5,1017.18,26.8,32.46,851003,20:08:42:995
-0.0047,0.0494,0.027,45.56,5,1017.36,26.8,34.199,852004,20:08:43:996
0.0133,-0.0189,0.0192,45.56,5,1017.67,26.8,33.239,853004,20:08:44:996
-0.0158,0.0345,0.0577,45.56,5,1017.58,26.9,32.826,854003,20:08:45:995
0.0647,0.0373,-0.1092,45.56,5,1017.7,26.9,34.258,855004,20:08:46:996
0.0309,-0.0051,-0.0344,45.56,5,1017.56,27,33.177,856003,20:08:47:995
0.0677,-0.0282,0.0388,45.56,5,1017.43,27,37.4,857004,20:08:48:996
-0.0126,-0.0243,0.0362,45.56,5,1017.36,27,37.427,858003,20:08:49:995
0.0157,-0.0125,0.0577,45.56,5,1017.25,27,35.333,859004,20:08:50:996
-0.0276,-0.0015,0.0035,45.56,5,1017.22,27,33.527,860004,20:08:51:996
0.0023,-0.0055,-0.0101,45.56,5,1017.25,27,33.023,861004,20:08:52:996
-0.0415,-0.0235,-0.0418,45.56,5,1017.21,27,33.485,862004,20:08:53:996
0.0206,0.0629,-0.1103,45.56,5,1017.14,27,33.851,863004,20:08:54:996
0.0159,0.0076,0.0701,45.56,5,1017.09,27,33.482,864004,20:08:55:996
-0.0081,0.0128,0.0218,45.56,5,1017.09,27,34.458,865004,20:08:56:996
0.0047,-0.0091,0.0369,45.56,5,1017.14,27,33.021,866004,20:08:57:996
-0.014,0.0131,0.062,45.56,5,1017.11,27,33.29,867003,20:08:58:995
0.0838,-0.0203,-0.0211,45.56,5,1017.09,27,33.113,868004,20:08:59:996
-0.0248,-8.00E-04,-0.0328,45.56,5,1017.08,27,33.373,869003,20:09:00:995
-0.0334,0.0044,-0.0505,45.56,5,1017.08,27,33.603,870003,20:09:01:995
-0.0012,-0.0062,-0.0924,45.56,5,1017.11,27,33.762,871003,20:09:02:995
0.0441,0.0046,0.0316,45.56,5,1017.1,26.9,33.441,872004,20:09:03:996
0.0286,-0.0119,0.0264,45.56,5,1017.1,26.9,34.017,873004,20:09:04:996
0.0136,-5.00E-04,0.0163,45.56,5,1017.08,26.9,35.099,874004,20:09:05:996
0.0102,-0.0437,-0.0211,45.56,5,1017.09,26.9,33.312,875003,20:09:06:995
-0.0104,-0.0531,0.0347,45.56,5,1017.1,26.9,33.962,876003,20:09:07:995
0.0901,-0.0188,0.0028,45.56,5,1017.11,26.9,38.35,877005,20:09:08:997
0.0249,-0.0207,-0.0746,45.56,5,1017.1,26.9,36.345,878004,20:09:09:996
-0.0465,-0.0468,-0.0198,45.56,5,1017.09,26.9,37.291,879004,20:09:10:996
0.0527,0.0352,-0.0559,45.56,5,1017.11,26.9,39.847,880004,20:09:11:996
0.0208,0.0186,-0.0138,45.56,5,1017.1,26.9,40.089,881004,20:09:12:996
0.0401,-0.0104,-0.109,45.56,5,1017.12,26.9,40.703,882004,20:09:13:996
-0.0383,0.054,-0.0232,45.56,5,1017.12,26.9,38.007,883004,20:09:14:996
-9.00E-04,0.0333,-0.0579,45.56,5,1017.13,26.9,40.122,884003,20:09:15:995
-0.0402,0.0401,-0.0097,45.56,5,1017.14,26.9,36.123,885005,20:09:16:997
-0.002,8.00E-04,0.0206,45.56,5,1017.15,26.9,34.11,886003,20:09:17:995
-0.0107,-0.1299,0.0344,45.56,5,1017.13,26.9,34.252,887004,20:09:18:996
0.0298,-0.0083,-0.0134,45.56,5,1017.11,26.9,34.435,888004,20:09:19:996
-0.0546,-0.0069,0.0128,45.56,5,1017.13,26.9,34.873,889003,20:09:20:995
-0.0203,0.0052,0.0378,45.56,5,1017.11,26.9,34.175,890004,20:09:21:996
-0.0257,-0.0723,-0.0087,45.56,5,1017.11,26.9,36.4,891004,20:09:22:996
-0.0067,-0.0213,-0.0608,45.56,5,1017.11,26.9,34.092,892004,20:09:23:996
0.0156,0.014,-0.0566,45.56,5,1017.11,26.9,34.226,893003,20:09:24:995
-0.0308,-0.0271,-0.0408,45.56,5,1017.12,26.8,33.935,894004,20:09:25:996
0.0414,-0.0126,0.0185,45.56,5,1017.17,26.8,33.35,895003,20:09:26:995
-0.0092,0.0134,0.0419,45.56,5,1017.13,26.8,34.983,896004,20:09:27:996
-0.0048,0.0209,-0.0088,45.56,5,1017.13,26.8,33.672,897004,20:09:28:996
0.001,0.0222,-0.0026,45.56,5,1017.14,26.8,33.784,898003,20:09:29:995
0.0537,-0.0113,-0.0139,45.56,5,1017.14,26.8,33.972,899004,20:09:30:996
0.0277,0.0094,0.0227,45.56,5,1017.16,26.8,34.478,900004,20:09:31:996
0.0296,-0.035,-0.0731,45.56,5,1017.14,26.8,36.304,901004,20:09:32:996
-0.0174,0.0241,0.0774,45.56,5,1017.16,26.8,36.233,902003,20:09:33:995
-0.0328,-0.0469,-0.0172,45.56,5,1017.16,26.8,34.559,903003,20:09:34:995
0.0397,-0.0062,-0.0416,45.56,5,1017.16,26.8,34.329,904003,20:09:35:995
0.0012,0.0173,0.0797,45.56,5,1017.18,26.8,34.704,905004,20:09:36:996
0.0564,0.0493,0.0572,45.56,5,1017.18,26.8,33.505,906004,20:09:37:996
-0.0017,0.0086,0.0142,45.56,5,1017.17,26.8,34.506,907004,20:09:38:996
-0.0403,-0.0463,-0.0613,45.56,5,1017.18,26.8,36.506,908004,20:09:39:996
0.0324,0.052,0.0755,45.56,5,1017.16,26.8,35.589,909003,20:09:40:995
-0.0021,0.0143,-0.02,45.56,5,1017.16,26.8,33.933,910004,20:09:41:996
0.0461,-0.0721,0.0341,45.56,5,1017.17,26.8,34.852,911004,20:09:42:996
0.0232,0.0364,0.0041,45.56,5,1017.16,26.8,34.93,912004,20:09:43:996
0.0136,-0.0536,-0.0262,45.56,5,1017.16,26.8,32.664,913004,20:09:44:996
-0.061,0.0181,0.0043,45.56,5,1017.18,26.8,34.261,914004,20:09:45:996
-0.0393,-0.0066,0.0168,45.56,5,1017.16,26.8,33.706,915003,20:09:46:995
-0.011,0.0074,-0.0047,45.56,5,1017.18,26.8,35.034,916004,20:09:47:996
0.0146,-0.015,-0.0357,45.56,5,1017.21,26.8,34.202,917004,20:09:48:996
0.0099,-0.0087,0.0326,45.56,5,1017.22,26.8,36.637,918004,20:09:49:996
0.0211,-0.0246,-0.0814,45.56,5,1017.18,26.8,38.373,919004,20:09:50:996
-0.0314,-0.0217,0.0783,45.56,5,1017.2,26.8,34.528,920003,20:09:51:995
-0.02,-0.0293,0.0558,45.56,5,1017.18,26.8,35.188,921004,20:09:52:996
-0.0168,0.0063,0.1151,45.56,5,1017.19,26.8,34.258,922005,20:09:53:997
-0.0021,2.00E-04,0.0237,45.56,5,1017.19,26.8,35.4,923004,20:09:54:996
-0.0128,-0.0082,-0.0226,45.56,5,1017.19,26.8,38.858,924004,20:09:55:996
0.0465,-0.0131,-0.0237,45.56,5,1017.17,26.8,37.27,925005,20:09:56:997
0.0202,-0.0329,-0.0162,45.56,5,1017.19,26.8,36.631,926004,20:09:57:996
0.0274,-0.0052,0.071,45.56,5,1017.19,26.8,36.631,927004,20:09:58:996
-0.0256,-0.0274,0.0019,45.56,5,1017.22,26.8,35.185,928004,20:09:59:996
0.0432,-0.0795,0.1116,45.56,5,1017.22,26.8,36.198,929004,20:10:00:996
-0.022,0.0167,-0.1051,45.56,5,1017.22,26.8,34.861,930004,20:10:01:996
0.0232,-0.0342,-0.0445,45.56,5,1017.22,26.8,37.006,931004,20:10:02:996
-0.0394,-0.0114,0.0155,45.56,5,1017.23,26.8,35.682,932003,20:10:03:995
-0.0021,0.0146,0.0505,45.56,5,1017.22,26.8,36.485,933003,20:10:04:995
0.0275,-0.0039,0.025,45.56,5,1017.2,26.8,35.868,934004,20:10:05:996
0.012,0.0185,-0.026,45.56,5,1017.19,26.8,35.898,935003,20:10:06:995
-0.0085,-6.00E-04,0.0123,45.56,5,1017.16,26.8,36.346,936004,20:10:07:996
0.0291,-0.0456,0.0327,45.56,5,1017.16,26.8,34.895,937004,20:10:08:996
0.0349,-0.0157,-0.0141,45.56,5,1017.18,26.8,35.909,938003,20:10:09:995
0.0031,0.0427,0.0732,45.56,5,1017.18,26.8,34.466,939004,20:10:10:996
-0.0203,0.0154,-0.0247,45.56,5,1017.16,26.8,34.855,940004,20:10:11:996
0.0422,0.0087,-0.0371,45.56,5,1017.17,26.8,35.798,941004,20:10:12:996
0.0055,-0.0441,-0.0073,45.56,5,1017.14,26.8,34.387,942004,20:10:13:996
0.0148,-0.0157,0.0107,45.56,5,1017.17,26.8,34.019,943004,20:10:14:996
0.0525,-0.0531,-0.0328,45.56,5,1017.17,26.8,33.17,944003,20:10:15:995
0.046,0.0055,0.0165,45.56,5,1017.17,26.8,34.431,945003,20:10:16:995
0.0169,0.0329,0.0053,45.56,5,1017.15,26.8,33.046,946008,20:10:18:000
0.0188,-0.0218,0.1089,45.56,5,1017.16,26.8,33.348,947004,20:10:18:996
0.011,0.0017,0.0113,45.56,5,1017.17,26.8,32.312,948003,20:10:19:995
-0.0199,-0.0101,0.0599,45.56,5,1017.2,26.8,31.614,949004,20:10:20:996
-0.0045,-0.0365,-0.027,45.56,5,1017.19,26.8,32.218,950004,20:10:21:996
0.0291,0.0333,0.0508,45.56,5,1017.2,26.8,31.664,951003,20:10:22:995
-0.003,-0.0145,0.0201,45.56,5,1017.22,26.8,31.569,952004,20:10:23:996
-1.00E-04,0.0714,0.0512,45.56,5,1017.2,26.8,32.658,953004,20:10:24:996
-0.0497,-0.0446,-0.0193,45.56,5,1017.2,26.8,32.644,954004,20:10:25:996
0.0015,0.017,-0.076,45.56,5,1017.19,26.8,33.452,955004,20:10:26:996
0.0093,-0.0058,-0.0063,45.56,5,1017.22,26.8,33.634,956004,20:10:27:996
-0.0295,0.0178,0.0093,45.56,5,1017.2,26.8,32.075,957004,20:10:28:996
0.0407,-0.0027,0.0165,45.56,5,1017.19,26.8,33.304,958003,20:10:29:995
-0.0392,0.0071,-0.0603,45.56,5,1017.21,26.8,33.076,959004,20:10:30:996
-0.0139,0.0282,-0.002,45.56,5,1017.24,26.8,35.333,960004,20:10:31:996
0.0155,0.0159,0.0232,45.56,5,1017.25,26.8,35.553,961003,20:10:32:995
0.0027,0.0036,-0.0318,45.56,5,1017.25,26.8,33.858,962004,20:10:33:996
0.0501,-0.0356,-0.0096,45.56,5,1017.23,26.8,34.79,963004,20:10:34:996
-0.0016,0.012,0.0345,45.56,5,1017.21,26.8,34.955,964004,20:10:35:996
-0.0119,0.0125,0.0197,45.56,5,1017.24,26.8,34.154,965003,20:10:36:995
-0.08,-0.0043,-0.0592,45.56,5,1017.22,26.8,33.043,966004,20:10:37:996
0.0102,-0.0343,0.0113,45.56,5,1017.22,26.8,33.918,967003,20:10:38:995
-0.0608,-0.0265,-0.0592,45.56,5,1017.2,26.8,34.903,968003,20:10:39:995
0.0129,-0.0314,-0.0403,45.56,5,1017.2,26.8,34.422,969004,20:10:40:996
0.0483,0.0283,-0.0717,45.56,5,1017.19,26.8,34.374,970003,20:10:41:995
0.0129,-0.01,0.0168,45.56,5,1017.18,26.8,35.416,971004,20:10:42:996
-0.0064,0.0037,0.0046,45.56,5,1017.2,26.8,35.712,972004,20:10:43:996
-0.032,0.0114,-0.1285,45.56,5,1017.18,26.8,36.877,973003,20:10:44:995
-0.0114,0.0337,-0.0042,45.56,5,1017.21,26.8,38.305,974003,20:10:45:995
0.0032,-0.0164,0.0181,45.56,5,1017.19,26.8,35.46,975004,20:10:46:996
-0.0218,-0.0243,0.0314,45.56,5,1017.18,26.8,35.604,976004,20:10:47:996
0.0019,-0.0355,-5.00E-04,45.56,5,1017.2,26.8,35.991,977004,20:10:48:996
-0.0291,-0.035,-0.0146,45.56,5,1017.17,26.8,35.341,978004,20:10:49:996
-0.008,0.0162,-0.0425,45.56,5,1017.2,26.8,35.338,979003,20:10:50:995
-0.0303,-0.022,-0.0488,45.56,5,1017.19,26.8,35.531,980004,20:10:51:996
0.0138,-0.0231,-0.0287,45.56,5,1017.2,26.8,35.663,981003,20:10:52:995
0.0045,0.0204,0.0131,45.56,5,1017.2,26.8,35.113,982003,20:10:53:995
0.0499,0.0374,0.0412,45.56,5,1017.17,26.8,35.519,983003,20:10:54:995
0.0265,0.0165,-0.0465,45.56,5,1017.21,26.8,34.887,984004,20:10:55:996
-0.0124,0.0064,0.0116,45.56,5,1017.18,26.8,34.579,985004,20:10:56:996
0.0074,-0.0109,-0.0219,45.56,5,1017.18,26.8,34.684,986004,20:10:57:996
-0.0138,-0.0016,0.0146,45.56,5,1017.15,26.8,35.621,987003,20:10:58:995
-0.0194,-0.0048,0.0162,45.56,5,1017.16,26.8,35.222,988004,20:10:59:996
0.0068,0.0224,0.0212,45.56,5,1017.17,26.8,35.355,989004,20:11:00:996
-0.0263,-0.0292,-0.0182,45.56,5,1017.17,26.8,36.448,990004,20:11:01:996
-0.0185,-0.0022,0.056,45.56,5,1017.17,26.8,38.862,991004,20:11:02:996
0.0055,0.0606,0.0298,45.56,5,1017.15,26.8,35.456,992004,20:11:03:996
-0.0121,-0.01,-0.0319,45.56,5,1017.17,26.8,35.166,993004,20:11:04:996
0.0225,-0.0036,-0.0288,45.56,5,1017.19,26.8,35.221,994003,20:11:05:995
-0.0148,-0.0213,0.0081,45.56,5,1017.21,26.8,35.765,995003,20:11:06:995
0.0301,-0.032,-0.0054,45.56,5,1017.22,26.8,59.612,996003,20:11:07:995
0.0128,0.0268,-0.0245,45.56,5,1017.19,26.8,35.518,997004,20:11:08:996
-0.0061,-0.0275,0.0601,45.56,5,1017.19,26.8,36.499,998004,20:11:09:996
0.0379,0.0095,0.0173,45.56,5,1017.17,26.8,37.182,999004,20:11:10:996
0.0205,-0.0164,-0.0026,45.56,5,1017.16,26.8,34.842,1000003,20:11:11:995
-0.051,0.0298,0.0429,45.56,5,1017.17,26.8,35.694,1001004,20:11:12:996
-0.0341,0.0188,0.0345,45.56,5,1017.16,26.8,37.392,1002003,20:11:13:995
0.0342,-0.0133,-0.043,45.56,5,1017.17,26.8,34.258,1003004,20:11:14:996
-0.0334,-0.0134,-0.0854,45.56,5,1017.17,26.8,33.678,1004003,20:11:15:995
0.0023,-0.0062,0.0141,45.56,5,1017.18,26.8,35.799,1005004,20:11:16:996
-0.072,0.0196,-0.0324,45.56,5,1017.17,26.8,34.268,1006004,20:11:17:996
0.0526,0.0158,-0.0542,45.56,5,1017.18,26.8,33.026,1007004,20:11:18:996
0.0074,-0.0163,0.0203,45.56,5,1017.2,26.8,33.85,1008004,20:11:19:996
0.0136,0.0159,0.0497,45.56,5,1017.18,26.8,35.341,1009004,20:11:20:996
0.0164,0.012,0.1332,45.56,5,1017.21,26.8,33.379,1010003,20:11:21:995
-0.012,0.004,-0.0609,45.56,5,1017.2,26.8,32.415,1011004,20:11:22:996
0.0183,-0.0083,0.0209,45.56,5,1017.18,26.8,32.923,1012004,20:11:23:996
0.0259,-0.058,-0.0076,45.56,5,1017.2,26.8,31.934,1013004,20:11:24:996
0.0176,-0.002,-0.0375,45.56,5,1017.18,26.8,33.428,1014004,20:11:25:996
-0.0468,0.0548,0.0595,45.56,5,1017.18,26.8,33.419,1015004,20:11:26:996
-0.0581,0.012,0.0785,45.56,5,1017.18,26.8,35.565,1016004,20:11:27:996
-0.0029,0.0051,0.0351,45.56,5,1017.18,26.8,35.893,1017003,20:11:28:995
-0.0162,0.0171,0.0308,45.56,5,1017.18,26.8,34.815,1018003,20:11:29:995
-0.0298,-0.0277,0.0262,45.56,5,1017.21,26.8,35.525,1019004,20:11:30:996
0.0075,-0.0096,-0.0572,45.56,5,1017.2,26.8,35.673,1020003,20:11:31:995
-0.0392,-0.0046,-0.0136,45.56,5,1017.2,26.8,36.235,1021004,20:11:32:996
-0.0209,0.0424,-0.0083,45.56,5,1017.21,26.8,34.905,1022004,20:11:33:996
0.0185,0.0086,0.0224,45.56,5,1017.2,26.8,35.425,1023004,20:11:34:996
0.0052,0.0128,-0.0306,45.56,5,1017.19,26.8,35.176,1024004,20:11:35:996
0.0303,-0.0234,-0.0304,45.56,5,1017.19,26.8,35.826,1025004,20:11:36:996
0.002,0.023,0.0205,45.56,5,1017.18,26.8,36.287,1026004,20:11:37:996
-0.0611,-0.0729,0.0304,45.56,5,1017.17,26.8,36.009,1027004,20:11:38:996
0.0183,-0.0122,-0.0496,45.56,5,1017.18,26.8,34.831,1028003,20:11:39:995
0.038,0.0341,0.0078,45.56,5,1017.16,26.8,35.73,1029004,20:11:40:996
-0.0308,-0.0288,-0.0638,45.56,5,1017.17,26.8,35.872,1030004,20:11:41:996
0.0065,0.0194,-0.0262,45.56,5,1017.17,26.8,34.718,1031004,20:11:42:996
-0.0065,0.0173,0.0397,45.56,5,1017.16,26.8,36.139,1032003,20:11:43:995
0.0514,-0.0446,-0.0249,45.56,5,1017.16,26.8,34.334,1033004,20:11:44:996
-0.0259,0.0081,0.0454,45.56,5,1017.16,26.8,33.978,1034003,20:11:45:995
0.0135,0.0212,-0.065,45.56,5,1017.13,26.8,33.066,1035004,20:11:46:996
-0.0371,0.0184,0.0094,45.56,5,1017.15,26.8,36.341,1036004,20:11:47:996
-0.0399,-0.0433,-0.0176,45.56,5,1017.16,26.8,35.55,1037004,20:11:48:996
0.0249,-0.0302,7.00E-04,45.56,5,1017.14,26.8,37.974,1038004,20:11:49:996
0.0486,-0.0327,0.0064,45.56,5,1017.13,26.8,33.633,1039004,20:11:50:996
-0.0029,-0.015,-0.0104,45.56,5,1017.14,26.8,33.951,1040003,20:11:51:995
-0.0477,0.0037,-0.0536,45.56,5,1017.16,26.8,34.843,1041004,20:11:52:996
0.0652,-0.0024,0.0215,45.56,5,1017.13,26.8,36.428,1042004,20:11:53:996
-0.0361,0.002,-0.1001,45.56,5,1017.2,26.8,35.58,1043004,20:11:54:996
0.0034,0.0201,0.0129,45.56,5,1017.17,26.8,35.056,1044003,20:11:55:995
0.0082,0.0162,0.0281,45.56,5,1017.16,26.8,35.76,1045004,20:11:56:996
0.0744,0.0083,-0.0391,45.56,5,1017.17,26.8,34.915,1046004,20:11:57:996
0.0102,0.0579,0.0765,45.56,5,1017.15,26.8,34.816,1047004,20:11:58:996
-0.0056,0.0319,0.039,45.56,5,1017.15,26.8,35.44,1048004,20:11:59:996
-0.0573,0.0039,0.0166,45.56,5,1017.15,26.8,34.303,1049003,20:12:00:995
0.021,0.0398,0.0153,45.56,5,1017.15,26.8,34.01,1050004,20:12:01:996
-0.0184,-0.0126,-0.0194,45.56,5,1017.17,26.8,34.841,1051004,20:12:02:996
0.0392,-0.0057,0.029,45.56,5,1017.15,26.8,37.914,1052003,20:12:03:995
0.0315,-0.0095,0.1012,45.56,5,1017.19,26.8,33.983,1053004,20:12:04:996
0.0412,0.0039,-0.0666,45.56,5,1017.17,26.8,34.479,1054003,20:12:05:995
0.0094,-0.0238,0.0023,45.56,5,1017.17,26.8,32.811,1055004,20:12:06:996
-0.0055,0.0142,-0.0635,45.56,5,1017.19,26.8,32.945,1056004,20:12:07:996
-0.0133,0.0175,3.00E-04,45.56,5,1017.19,26.8,34.002,1057004,20:12:08:996
0.0404,-0.0361,0.0195,45.56,5,1017.19,26.8,34.864,1058004,20:12:09:996
-0.0341,-0.0535,-0.0781,45.56,5,1017.17,26.8,35.54,1059004,20:12:10:996
-0.0198,-0.0318,-0.0431,45.56,5,1017.19,26.8,34.823,1060003,20:12:11:995
0.0153,-0.0284,0.0052,45.56,5,1017.17,26.8,34.304,1061004,20:12:12:996
-0.002,0.0339,-0.0243,45.56,5,1017.15,26.8,34.235,1062004,20:12:13:996
0.0192,-0.0031,0.0107,45.56,5,1017.18,26.8,33.847,1063004,20:12:14:996
0.0238,-2.00E-04,0.0055,45.56,5,1017.17,26.8,33.063,1064004,20:12:15:996
0.0069,0.0067,0.012,45.56,5,1017.18,26.8,34.283,1065003,20:12:16:995
-0.0493,0.0211,-0.0221,45.56,5,1017.19,26.8,34.32,1066004,20:12:17:996
0.0199,-0.0234,-0.0417,45.56,5,1017.17,26.8,34.931,1067004,20:12:18:996
0.0259,0.0272,0.0656,45.56,5,1017.17,26.8,34.743,1068004,20:12:19:996
-0.0378,-0.0184,0.0751,45.56,5,1017.18,26.8,34.476,1069003,20:12:20:995
-0.0324,-0.0643,-0.0228,45.56,5,1017.16,26.8,35.366,1070004,20:12:21:996
-0.0068,0.0536,0.0208,45.56,5,1017.16,26.8,34.124,1071003,20:12:22:995
-0.0085,0.0013,-0.0214,45.56,5,1017.15,26.8,35.723,1072003,20:12:23:995
0.0818,-0.0202,-0.0039,45.56,5,1017.15,26.8,33.38,1073003,20:12:24:995
0.0077,-0.0139,-0.0012,45.56,5,1017.16,26.8,33.44,1074004,20:12:25:996
-0.0304,-0.0226,-0.0014,45.56,5,1017.17,26.8,35.269,1075004,20:12:26:996
0.0282,0.0279,-0.0034,45.56,5,1017.17,26.8,32.632,1076004,20:12:27:996
0.0169,-0.0092,0.0591,45.56,5,1017.15,26.8,33.311,1077004,20:12:28:996
-0.0316,-0.0436,0.0307,45.56,5,1017.16,26.8,32.817,1078003,20:12:29:995
-0.0446,3.00E-04,0.0152,45.56,5,1017.17,26.8,33.625,1079004,20:12:30:996
-0.0603,0.0236,-0.0354,45.56,5,1017.41,26.8,33.703,1080003,20:12:31:995
-0.0329,-0.053,0.0176,45.56,5,1017.58,26.8,34.717,1081003,20:12:32:995
0.0034,0.0732,0.011,45.56,5,1017.49,26.8,38.28,1082004,20:12:33:996
0.0127,-0.0123,-0.0137,45.56,5,1017.45,26.8,37.378,1083004,20:12:34:996
-0.0372,0.0822,-0.025,45.56,5,1017.43,26.9,35.151,1084004,20:12:35:996
-0.046,0.0107,0.0271,45.56,5,1017.33,26.9,33.557,1085003,20:12:36:995
-0.0377,-0.0167,0.0021,45.56,5,1017.27,26.9,33.637,1086004,20:12:37:996
0.0044,-0.0069,-0.0467,45.56,5,1017.22,26.9,32.246,1087004,20:12:38:996
0.0427,0.0016,-0.0365,45.56,5,1017.17,26.9,31.885,1088004,20:12:39:996
-4.00E-04,-0.0133,-0.0273,45.56,5,1017.15,26.9,33.324,1089003,20:12:40:995
-0.0098,0.0025,-0.0757,45.56,5,1017.15,26.9,36.359,1090004,20:12:41:996
-0.0272,-0.0078,-0.0082,45.56,5,1017.12,26.9,35.215,1091003,20:12:42:995
-0.0083,0.0256,-0.0183,45.56,5,1017.11,26.9,34.76,1092004,20:12:43:996
0.0716,0.0343,0.0523,45.56,5,1017.1,26.9,33.84,1093004,20:12:44:996
-0.0055,-0.0259,0.0037,45.56,5,1017.13,26.9,33.694,1094004,20:12:45:996
0.0119,0.0479,0.0825,45.56,5,1017.15,26.9,33.269,1095004,20:12:46:996
0.0265,0.0327,-0.0185,45.56,5,1017.13,26.9,32.235,1096004,20:12:47:996
-0.0366,-0.0381,0.0279,45.56,5,1017.15,26.9,32.868,1097004,20:12:48:996
0.0088,-0.0077,-0.0268,45.56,5,1017.15,26.8,33.87,1098004,20:12:49:996
0.0048,-0.0576,-0.0472,45.56,5,1017.12,26.8,33.031,1099003,20:12:50:995
0.0036,-0.0031,-0.0287,45.56,5,1017.13,26.8,33.203,1100004,20:12:51:996
-0.0389,-0.0226,0.0098,45.56,5,1017.15,26.8,33.199,1101004,20:12:52:996
0.0184,-0.0236,0.0145,45.56,5,1017.17,26.8,32.625,1102004,20:12:53:996
-0.0143,-0.003,0.0196,45.56,5,1017.17,26.8,32.476,1103004,20:12:54:996
-0.0165,-0.0175,0.0132,45.56,5,1017.16,26.8,34.221,1104003,20:12:55:995
0.0112,-0.0426,0.0292,45.56,5,1017.16,26.8,33.287,1105004,20:12:56:996
0.045,-0.0046,-0.0759,45.56,5,1017.17,26.8,38.96,1106004,20:12:57:996
0.0027,-0.0041,0.0128,45.56,5,1017.16,26.8,41.857,1107003,20:12:58:995
-0.0335,0.031,0.0438,45.56,5,1017.16,26.8,35.783,1108004,20:12:59:996
-0.0797,0.0094,-0.0033,45.56,5,1017.16,26.8,32.144,1109003,20:13:00:995
-0.0242,0.0374,0.0506,45.56,5,1017.18,26.8,45.557,1110004,20:13:01:996
0.0238,0.0013,0.0727,45.56,5,1017.18,26.8,34.238,1111004,20:13:02:996
-0.0203,-0.0329,0.0017,45.56,5,1017.18,26.8,31.352,1112003,20:13:03:995
-0.033,-0.0078,0.047,45.56,5,1017.17,26.8,32.503,1113004,20:13:04:996
0.005,-0.0341,-0.0057,45.56,5,1017.16,26.8,33.194,1114004,20:13:05:996
0.0194,0.0138,0.0291,45.56,5,1017.15,26.8,32.076,1115004,20:13:06:996
0.0319,0.0025,-0.0915,45.56,5,1017.17,26.8,32.338,1116003,20:13:07:995
-0.0172,-0.0237,0.0644,45.56,5,1017.17,26.8,33.036,1117004,20:13:08:996
0.023,-0.0143,0.0376,45.56,5,1017.17,26.8,33.264,1118004,20:13:09:996
0.0367,-0.0079,-0.0191,45.56,5,1017.17,26.8,32.671,1119003,20:13:10:995
-0.0088,0.001,-0.0449,45.56,5,1017.18,26.8,31.987,1120004,20:13:11:996
-0.0257,0.0175,-0.0459,45.56,5,1017.17,26.8,33.459,1121004,20:13:12:996
0.0165,-0.0088,-0.0123,45.56,5,1017.16,26.8,32.661,1122004,20:13:13:996
-0.0407,0.0318,-0.0054,45.56,5,1017.18,26.8,33.763,1123003,20:13:14:995
0.0516,6.00E-04,0.0172,45.56,5,1017.16,26.8,32.558,1124003,20:13:15:995
0.0218,-0.0083,-0.0066,45.56,5,1017.17,26.8,34.872,1125004,20:13:16:996
-0.0047,-0.0301,-0.0153,45.56,5,1017.19,26.8,32.724,1126004,20:13:17:996
0.035,0.0373,0.0998,45.56,5,1017.18,26.8,32.939,1127003,20:13:18:995
0.0181,-0.0033,0.0731,45.56,5,1017.19,26.8,33.929,1128004,20:13:19:996
0.0177,0.0199,0.0576,45.56,5,1017.18,26.8,34.136,1129004,20:13:20:996
-0.0231,-0.0374,-0.0389,45.56,5,1017.19,26.8,34.194,1130004,20:13:21:996
0.0713,-0.0169,0.0178,45.56,5,1017.18,26.8,33.985,1131004,20:13:22:996
-0.0447,0.0354,0.0184,45.56,5,1017.18,26.8,33.959,1132004,20:13:23:996
0.0396,-0.0351,-0.0208,45.56,5,1017.2,26.8,35.225,1133003,20:13:24:995
0.0451,0.0174,0.0456,45.56,5,1017.22,26.8,33.835,1134004,20:13:25:996
0.0182,0.0406,0.0158,45.56,5,1017.18,26.8,33.074,1135004,20:13:26:996
4.00E-04,-0.0329,-0.091,45.56,5,1017.18,26.8,33.608,1136003,20:13:27:995
-0.0737,-0.0699,-0.0052,45.56,5,1017.2,26.8,33.851,1137003,20:13:28:995
0.0234,-0.0268,-0.0219,45.56,5,1017.2,26.8,35.467,1138004,20:13:29:996
-0.0245,-0.0212,-0.0434,45.56,5,1017.2,26.8,33.944,1139003,20:13:30:995
0.0277,0.0085,0.0305,45.56,5,1017.22,26.8,34.612,1140003,20:13:31:995
-0.0044,-0.0283,0.0495,45.56,5,1017.22,26.8,34.053,1141004,20:13:32:996
7.00E-04,0.0067,0.0269,45.56,5,1017.21,26.8,33.887,1142004,20:13:33:996
0.0278,-0.0496,0.0348,45.56,5,1017.18,26.8,34.817,1143003,20:13:34:995
0.0335,-0.0191,0.035,45.56,5,1017.18,26.8,34.445,1144004,20:13:35:996
0.0276,0.0131,0.0761,45.56,5,1017.15,26.8,34.643,1145004,20:13:36:996
-0.0058,0.0133,-0.0335,45.56,5,1017.13,26.8,34.564,1146003,20:13:37:995
0.0242,0.0263,0.0466,45.56,5,1017.12,26.8,34.325,1147004,20:13:38:996
0.0188,0.0296,-0.0148,45.56,5,1017.13,26.8,34.266,1148003,20:13:39:995
-0.034,0.0026,0.0717,45.56,5,1017.11,26.8,33.615,1149005,20:13:40:997
0.0062,0.0205,0.0118,45.56,5,1017.09,26.8,36.888,1150003,20:13:41:995
0.0371,0.0061,-0.0125,45.56,5,1017.09,26.8,34.088,1151003,20:13:42:995
0.033,-0.0102,0.0377,45.56,5,1017.1,26.8,34.447,1152004,20:13:43:996
-0.0195,-0.0125,-0.0783,45.56,5,1017.29,26.8,34.53,1153003,20:13:44:995
-0.0528,-0.1029,-0.0696,45.56,5,1017.68,26.8,34.001,1154003,20:13:45:995
-0.0044,-0.0103,0.0247,45.56,5,1018.26,26.9,34.152,1155003,20:13:46:995
0.0025,-0.0379,0.0476,45.56,5,1018.6,27,34.708,1156004,20:13:47:996
0.0107,0.0477,0.0603,45.56,5,1018.63,27.1,35.247,1157004,20:13:48:996
0.042,0.0314,-0.0186,45.56,5,1018.75,27.1,35.592,1158004,20:13:49:996
0.0529,0.0234,0.0602,45.56,5,1018.78,27.3,35,1159004,20:13:50:996
-0.0126,-0.0125,0.0033,45.56,5,1018.75,27.4,36.515,1160003,20:13:51:995
-0.0325,-0.0315,-0.0389,45.56,5,1018.94,27.5,36.613,1161003,20:13:52:995
-0.0097,-0.0216,-0.0099,45.56,5,1018.96,27.6,36.208,1162003,20:13:53:995
-0.035,-0.0217,-0.0027,45.56,5,1018.83,27.8,35.205,1163003,20:13:54:995
0.0025,0.0117,-0.0308,45.56,5,1018.64,27.9,43.845,1164003,20:13:55:995
0.0094,-0.024,-0.0186,45.56,5,1018.54,27.9,40.935,1165003,20:13:56:995
0.0067,0.0483,-0.0424,45.56,5,1018.5,28,36.767,1166004,20:13:57:996
-0.0459,-0.0186,-0.0541,45.56,5,1018.51,28.1,36.675,1167003,20:13:58:995
0.0154,0.0386,0.0201,45.56,5,1018.41,28.2,33.889,1168003,20:13:59:995
0.0501,-0.0071,1.00E-04,45.56,5,1018.36,28.4,34.579,1169003,20:14:00:995
-0.0052,0.0357,0.038,45.56,5,1018.32,28.4,35.326,1170003,20:14:01:995
-0.0023,0.058,-0.0233,45.56,5,1018.26,28.5,34.402,1171003,20:14:02:995
0.0314,0.0092,0.002,45.56,5,1018.17,28.6,34.552,1172003,20:14:03:995
-0.0023,-0.0396,-0.0342,45.56,5,1018.06,28.6,35.02,1173003,20:14:04:995
0.023,0.0272,0.1039,45.56,5,1018.06,28.7,34.114,1174003,20:14:05:995
-0.0315,0.0157,-0.0148,45.56,5,1018.04,28.8,34.379,1175003,20:14:06:995
0.0128,-0.0505,0.0486,45.56,5,1018,28.8,33.973,1176004,20:14:07:996
0.0085,0.0413,0.0298,45.56,5,1017.99,28.9,33.725,1177003,20:14:08:995
-0.0549,0.0378,0.0231,45.56,5,1017.92,28.9,33.864,1178003,20:14:09:995
0.0465,-0.0097,-0.0133,45.56,5,1017.86,29,33.774,1179003,20:14:10:995
-0.017,-0.0315,0.0772,45.56,5,1017.81,29,32.881,1180003,20:14:11:995
0.0404,0.0026,-0.006,45.56,5,1017.85,29.1,34.012,1181003,20:14:12:995
-0.0604,0.0156,-0.0915,45.56,5,1017.86,29.1,34.473,1182004,20:14:13:996
2.00E-04,-0.0287,-0.0614,45.56,5,1017.89,29.2,32.937,1183003,20:14:14:995
-0.0016,-0.0285,0.0581,45.56,5,1017.91,29.2,34.4,1184003,20:14:15:995
-0.0532,-0.0103,0.0156,45.56,5,1017.83,29.3,33.337,1185003,20:14:16:995
0.0209,0.0143,0.0644,45.56,5,1017.85,29.3,33.278,1186003,20:14:17:995
-0.0352,-0.0369,0.024,45.56,5,1017.86,29.4,32.591,1187003,20:14:18:995
-0.0121,0.0111,0.0405,45.56,5,1017.81,29.4,32.173,1188003,20:14:19:995
-0.0455,-0.0368,0.0417,45.56,5,1017.85,29.4,33.562,1189004,20:14:20:996
0.0309,0.0057,0.0691,45.56,5,1017.9,29.5,33.081,1190003,20:14:21:995
-0.0019,0.0041,0.0687,45.56,5,1017.93,29.5,33.497,1191003,20:14:22:995
-0.0243,-0.0157,0.0058,45.56,5,1017.83,29.6,33.503,1192003,20:14:23:995
-0.0137,-0.0359,-0.0521,45.56,5,1017.8,29.6,33.356,1193003,20:14:24:995
0.0436,0.005,0.0301,45.56,5,1017.68,29.6,32.817,1194003,20:14:25:995
-0.0181,0.0214,-0.0408,45.56,5,1017.65,29.7,33.132,1195003,20:14:26:995
-0.019,-0.0322,0.0223,45.56,5,1017.71,29.7,34.188,1196003,20:14:27:995
0.0183,-0.0299,0.0513,45.56,5,1017.7,29.7,33.382,1197003,20:14:28:995
0.0266,-0.0352,-0.0891,45.56,5,1017.65,29.8,32.276,1198004,20:14:29:996
0.0105,-0.0148,0.0834,45.56,5,1017.6,29.8,33.99,1199003,20:14:30:995
0.0056,-0.0523,-0.0433,45.56,5,1017.63,29.8,32.948,1200003,20:14:31:995
0.0412,-0.0048,-0.0051,45.56,5,1017.65,29.9,31.244,1201003,20:14:32:995
0.0051,0.0068,-0.0235,45.56,5,1017.61,29.9,34.204,1202004,20:14:33:996
0.0172,-0.0275,-0.0938,45.56,5,1017.53,29.9,32.476,1203003,20:14:34:995
0.0357,0.0142,0.0395,45.56,5,1017.57,29.9,32.321,1204004,20:14:35:996
0.035,-0.0011,0.0248,45.56,5,1017.55,30,32.234,1205004,20:14:36:996
-0.0236,-0.0528,0.0852,45.56,5,1017.6,30,33.208,1206004,20:14:37:996
0.0371,0.0174,-0.0572,45.56,5,1017.56,30,33.642,1207003,20:14:38:995
-0.0436,-0.0014,-7.00E-04,45.56,5,1017.57,30.1,34.324,1208003,20:14:39:995
0.0752,-0.0463,-0.0346,45.56,5,1017.55,30.1,34.186,1209003,20:14:40:995
0.0411,-0.0041,0.0427,45.56,5,1017.57,30.1,32.241,1210003,20:14:41:995
-0.0391,-0.0015,-0.0201,45.56,5,1017.56,30.1,33.482,1211003,20:14:42:995
0.0032,-0.0241,0.011,45.56,5,1017.55,30.2,32.217,1212003,20:14:43:995
-0.0203,-0.0147,0.0085,45.56,5,1017.52,30.2,31.561,1213003,20:14:44:995
0.0016,0.002,0.0431,45.56,5,1017.69,30.2,32.897,1214003,20:14:45:995
0.0646,-0.0935,-0.0587,45.56,5,1017.94,30.2,32.058,1215003,20:14:46:995
0.0034,-0.0285,0.0478,45.56,5,1018.04,30.3,31.918,1216003,20:14:47:995
-0.0289,0.016,0.0241,45.56,5,1018.05,30.3,34.284,1217003,20:14:48:995
0.027,0.0073,0.0395,45.56,5,1018.06,30.4,33.679,1218003,20:14:49:995
-0.0118,-0.0093,0.0537,45.56,5,1018.1,30.4,34.426,1219004,20:14:50:996
0.0303,0.0159,-0.076,45.56,5,1018.03,30.5,33.782,1220003,20:14:51:995
0.0197,0.0045,0.0455,45.56,5,1018,30.5,34.012,1221003,20:14:52:995
0.0055,-0.0218,-0.0223,45.56,5,1017.93,30.6,33.736,1222004,20:14:53:996
-0.0322,-0.006,0.0882,45.56,5,1017.82,30.6,33.825,1223004,20:14:54:996
-0.0166,-0.0344,0.0497,45.56,5,1017.75,30.7,35.159,1224004,20:14:55:996
0.0293,-0.0105,0.0548,45.56,5,1017.72,30.7,35.742,1225004,20:14:56:996
-0.0521,-0.0136,9.00E-04,45.56,5,1017.65,30.7,35.947,1226004,20:14:57:996
-0.0089,-0.0131,-0.0515,45.56,5,1017.46,30.8,35.709,1227003,20:14:58:995
0.0306,-0.0138,0.0053,45.56,5,1017.2,30.8,36.602,1228003,20:14:59:995
0.0376,0.0385,-0.0278,45.56,5,1017.07,30.8,35.482,1229003,20:15:00:995
-0.0221,-0.024,0.007,45.56,5,1016.99,30.8,36.043,1230003,20:15:01:995
-0.0287,0.0395,-0.0279,45.56,5,1016.9,30.8,35.83,1231004,20:15:02:996
-0.0105,-0.0489,-0.0647,45.56,5,1017.05,30.8,35.412,1232004,20:15:03:996
-0.0199,-0.0446,0.0393,45.56,5,1017.29,30.8,34.538,1233003,20:15:04:995
-0.0607,-0.0044,0.0362,45.56,5,1017.48,30.8,36.867,1234004,20:15:05:996
-0.0086,-0.057,-0.0303,45.56,5,1017.56,30.8,36.751,1235004,20:15:06:996
0.0439,0.0305,-0.0331,45.56,5,1017.71,30.8,36.821,1236003,20:15:07:995
0.0204,-0.01,-0.0046,45.56,5,1017.7,30.9,38.424,1237003,20:15:08:995
-0.0141,-0.0104,-0.0607,45.56,5,1017.75,30.9,39.154,1238003,20:15:09:995
0.0294,0.0279,-0.0379,45.56,5,1017.72,30.9,37.993,1239003,20:15:10:995
0.0373,-0.01,-0.0257,45.56,5,1017.41,30.9,38.704,1240003,20:15:11:995
0.0521,-0.0022,-0.0433,45.56,5,1017.47,31,33.76,1241003,20:15:12:995
0.0175,-0.0528,0.0069,45.56,5,1017.47,31,34.919,1242003,20:15:13:995
0.0105,-0.04,0.0727,45.56,5,1017.68,31,32.957,1243003,20:15:14:995
7.00E-04,-0.0214,-0.055,45.56,5,1017.7,31,32.848,1244003,20:15:15:995
0.0033,-0.0307,0.007,45.56,5,1017.57,31,32.932,1245004,20:15:16:996
-0.0353,-0.0604,0.0643,45.56,5,1017.63,31.1,33.408,1246004,20:15:17:996
-0.0557,-0.0114,0.0537,45.56,5,1017.23,31.1,34.04,1247004,20:15:18:996
0.0426,-0.0403,-0.0269,45.56,5,1017.31,31.1,34.523,1248003,20:15:19:995
0.0552,-0.0101,-0.0234,45.56,5,1017.52,31.1,33.777,1249003,20:15:20:995
-0.0407,0.0235,0.0328,45.56,5,1017.66,31.1,35.376,1250004,20:15:21:996
-0.0095,-0.0308,-0.0424,45.56,5,1017.65,31.2,39.312,1251003,20:15:22:995
0.0379,-0.0144,0.0036,45.56,5,1017.69,31.2,36.152,1252003,20:15:23:995
0.0166,-0.0262,-0.0074,45.56,5,1017.6,31.2,38.39,1253003,20:15:24:995
-0.0023,-0.0539,-0.0425,45.56,5,1017.48,31.3,36.448,1254003,20:15:25:995
-0.0383,-0.0306,0.0571,45.56,5,1017.47,31.3,36.592,1255004,20:15:26:996
0.0251,0.0042,0.08,45.56,5,1017.58,31.3,36.067,1256003,20:15:27:995
-0.0188,0.0386,-0.059,45.56,5,1017.52,31.3,35.784,1257003,20:15:28:995
-0.0122,0.0066,0.0353,45.56,5,1017.42,31.4,38.156,1258003,20:15:29:995
0.0039,0.0149,-0.0178,45.56,5,1017.52,31.4,36.984,1259003,20:15:30:995
-0.0302,-0.0258,0.0314,45.56,5,1017.67,31.4,36.543,1260004,20:15:31:996
-0.0427,-0.0283,-0.0585,45.56,5,1017.63,31.4,37.927,1261003,20:15:32:995
0.0313,0.0069,-0.0172,45.56,5,1017.76,31.5,35.463,1262003,20:15:33:995
0.0246,0.0443,0.0779,45.56,5,1017.8,31.5,36.837,1263003,20:15:34:995
-0.0509,0.0275,-0.0243,45.56,5,1017.6,31.5,36.355,1264004,20:15:35:996
-0.0028,-0.0123,0.0235,45.56,5,1017.59,31.5,34.85,1265004,20:15:36:996
0.0146,0.0255,0.0157,45.56,5,1017.66,31.6,34.863,1266004,20:15:37:996
0.0015,0.0424,-0.0864,45.56,5,1017.66,31.6,35.445,1267003,20:15:38:995
-0.0094,-0.0217,-0.0208,45.56,5,1017.38,31.6,34.098,1268004,20:15:39:996
-0.0089,0.0065,0.0192,45.56,5,1017.33,31.6,36.146,1269003,20:15:40:995
0.0283,0.0013,0.0191,45.56,5,1017.44,31.6,35.872,1270003,20:15:41:995
-0.0123,-0.0085,0.0057,45.56,5,1017.51,31.6,43.246,1271003,20:15:42:995
-0.0182,-0.0017,-0.0177,45.56,5,1017.53,31.7,35.404,1272003,20:15:43:995
0.0111,-0.0257,-0.0057,45.56,5,1017.5,31.7,36.231,1273003,20:15:44:995
0.0123,-0.0469,-0.0247,45.56,5,1017.5,31.7,36.712,1274003,20:15:45:995
0.0259,0.0664,-0.059,45.56,5,1017.37,31.7,37.44,1275004,20:15:46:996
0.0287,-0.0267,-0.0112,45.56,5,1017.28,31.7,36.446,1276003,20:15:47:995
0.0058,-0.0146,0.0907,45.56,5,1017.2,31.7,35.361,1277003,20:15:48:995
-0.0395,0.0071,0.0098,45.56,5,1017.16,31.7,33.78,1278003,20:15:49:995
0.0145,0.0195,0.0644,45.56,5,1017.1,31.7,34.325,1279004,20:15:50:996
0.0216,0.0127,-0.0274,45.56,5,1016.95,31.7,34.625,1280004,20:15:51:996
-0.0079,0.03,-0.0785,45.56,5,1016.89,31.7,35.111,1281003,20:15:52:995
0.0222,0.0253,0.0236,45.56,5,1016.96,31.7,34.896,1282003,20:15:53:995
-0.0049,-0.0065,0.0174,45.56,5,1016.94,31.7,33.282,1283003,20:15:54:995
-0.0209,-0.0149,-0.0052,45.56,5,1016.92,31.7,34.209,1284003,20:15:55:995
-0.0137,-0.0139,0.0085,45.56,5,1016.94,31.7,32.763,1285003,20:15:56:995
0.0467,0.0117,0.0078,45.56,5,1016.89,31.6,34.095,1286003,20:15:57:995
-0.0274,-0.026,0.032,45.56,5,1016.89,31.6,33.127,1287004,20:15:58:996
0.0417,-0.015,0.0457,45.56,5,1016.88,31.6,34.264,1288003,20:15:59:995
0.0056,0.012,-0.0295,45.56,5,1016.96,31.6,34.303,1289003,20:16:00:995
-0.0067,-0.0227,-0.093,45.56,5,1016.88,31.5,33.713,1290003,20:16:01:995
-0.0111,0.0039,-0.0439,45.56,5,1016.88,31.5,35.741,1291004,20:16:02:996
0.0283,-0.0124,-0.0523,45.56,5,1016.97,31.5,33.977,1292003,20:16:03:995
-0.0406,0.0062,-0.0034,45.56,5,1017.05,31.5,36.934,1293004,20:16:04:996
0.0401,-0.0028,-0.0342,45.56,5,1017.12,31.5,36.982,1294004,20:16:05:996
0.0417,-0.0225,-4.00E-04,45.56,5,1017.23,31.5,35.981,1295003,20:16:06:995
0.0112,0.0125,0.0149,45.56,5,1017.06,31.5,43.841,1296003,20:16:07:995
0.017,0.0264,-0.0153,45.56,5,1017.05,31.5,35.88,1297003,20:16:08:995
-0.0071,-0.0291,-0.049,45.56,5,1017.11,31.5,37.21,1298003,20:16:09:995
0.0105,0.0063,0.0265,45.56,5,1017.19,31.5,35.871,1299004,20:16:10:996
0.0152,0.0351,0.0113,45.56,5,1017.11,31.5,35.722,1300003,20:16:11:995
0.0354,-0.0209,-0.0335,45.56,5,1017.14,31.5,38.135,1301003,20:16:12:995
-0.0203,0.0432,0.0084,45.56,5,1017.15,31.5,35.655,1302003,20:16:13:995
0.0135,-0.0471,-0.004,45.56,5,1017.2,31.5,38.713,1303003,20:16:14:995
-0.0217,0.0049,-0.0354,45.56,5,1017.29,31.5,39.549,1304004,20:16:15:996
0.0177,0.0163,0.0553,45.56,5,1017.35,31.5,34.5,1305003,20:16:16:995
0.0111,-0.0329,0.0382,45.56,5,1017.39,31.5,35.724,1306003,20:16:17:995
-0.0082,0.0406,0.0158,45.56,5,1017.26,31.5,33.832,1307003,20:16:18:995
-0.0214,0.0055,-0.0347,45.56,5,1017.21,31.5,33.463,1308003,20:16:19:995
0.0683,3.00E-04,0.0828,45.56,5,1017.26,31.5,33.728,1309004,20:16:20:996
0.0295,0.0035,0.011,45.56,5,1017.33,31.5,35.063,1310003,20:16:21:995
-0.0273,-0.0248,-0.0573,45.56,5,1017.28,31.5,36.927,1311003,20:16:22:995
-0.0049,0.0032,0.0377,45.56,5,1017.33,31.5,38.15,1312003,20:16:23:995
0.0185,-0.0088,-0.0305,45.56,5,1017.39,31.5,35.419,1313003,20:16:24:995
-0.0302,-0.0338,0.0523,45.56,5,1017.32,31.5,37.792,1314004,20:16:25:996
0.0218,0.0254,0.0445,45.56,5,1017.34,31.5,38.351,1315004,20:16:26:996
-0.0099,0.0144,-0.0205,45.56,5,1017.33,31.5,37.018,1316004,20:16:27:996
0.0197,0.0537,0.0476,45.56,5,1017.39,31.5,36.448,1317003,20:16:28:995
0.0359,0.0098,0.0145,45.56,5,1017.38,31.6,37.801,1318003,20:16:29:995
-0.0292,-0.0136,0.0412,45.56,5,1017.32,31.6,37.812,1319003,20:16:30:995
0.0162,0.0066,0.041,45.56,5,1017.38,31.6,38.764,1320004,20:16:31:996
0.0374,-3.00E-04,-0.0215,45.56,5,1017.4,31.6,37.034,1321003,20:16:32:995
-0.0603,-0.0194,-0.025,45.56,5,1017.42,31.6,36.17,1322003,20:16:33:995
0.0277,-0.0305,-0.0249,45.56,5,1017.32,31.6,38.114,1323003,20:16:34:995
0.0015,-0.0122,0.0025,45.56,5,1017.37,31.6,36.548,1324003,20:16:35:995
-0.0185,0.0033,-0.0051,45.56,5,1017.39,31.6,36.858,1325003,20:16:36:995
-0.0352,0.0325,0.0421,45.56,5,1017.45,31.6,35.269,1326004,20:16:37:996
-0.0098,0.0013,-0.0785,45.56,5,1017.41,31.6,35.684,1327003,20:16:38:995
-0.0198,0.0447,0.0426,45.56,5,1017.42,31.6,36.905,1328004,20:16:39:996
0.0052,0.0291,-0.0376,45.56,5,1017.38,31.7,33.896,1329003,20:16:40:995
-0.0108,0.0437,-1.00E-04,45.56,5,1017.36,31.7,33.613,1330003,20:16:41:995
-0.0113,-0.0155,0.0523,45.56,5,1017.36,31.7,35.211,1331003,20:16:42:995
0.0751,0.0097,0.058,45.56,5,1017.35,31.7,34.512,1332003,20:16:43:995
0.007,-0.0142,0.0274,45.56,5,1017.25,31.7,35.147,1333003,20:16:44:995
-0.0501,0.0016,-0.0075,45.56,5,1017.18,31.7,34.94,1334004,20:16:45:996
-0.0801,0.021,-0.0442,45.56,5,1017.13,31.7,34.304,1335003,20:16:46:995
-0.0602,1.00E-04,-0.0218,45.56,5,1017.22,31.7,33.879,1336003,20:16:47:995
-0.0097,-0.0059,0.0412,45.56,5,1017.27,31.7,33.419,1337003,20:16:48:995
-0.0129,0.0207,0.0211,45.56,5,1017.31,31.7,35.651,1338004,20:16:49:996
-0.0105,0.0021,0.0488,45.56,5,1017.31,31.7,34.538,1339003,20:16:50:995
9.00E-04,-0.0091,-0.043,45.56,5,1017.37,31.7,43.448,1340003,20:16:51:995
0.0305,-0.0168,0.0186,45.56,5,1017.43,31.7,41.778,1341004,20:16:52:996
0.0174,-0.0491,-0.0403,45.56,5,1017.49,31.7,35.818,1342004,20:16:53:996
0.0231,-0.0078,-0.0393,45.56,5,1017.33,31.7,37.261,1343005,20:16:54:997
-0.0304,-0.0142,0.005,45.56,5,1017.34,31.7,38.046,1344004,20:16:55:996
-0.0107,-0.0299,-0.0578,45.56,5,1017.32,31.7,37.085,1345003,20:16:56:995
-0.007,0.0241,0.0419,45.56,5,1017.34,31.7,37.678,1346003,20:16:57:995
-0.026,-0.0034,-0.0021,45.56,5,1017.35,31.7,36.35,1347003,20:16:58:995
-0.0099,0.0134,0.0118,45.56,5,1017.45,31.7,36.889,1348003,20:16:59:995
-0.0267,0.0075,0.0096,45.56,5,1017.57,31.8,35.755,1349003,20:17:00:995
-0.0086,0.046,-0.0288,45.56,5,1017.54,31.8,38.375,1350004,20:17:01:996
0.0297,0.0092,0.0237,45.56,5,1017.41,31.8,38.552,1351003,20:17:02:995
0.0306,-0.0128,-0.0592,45.56,5,1017.38,31.8,36.279,1352004,20:17:03:996
0.0346,-0.0099,0.0292,45.56,5,1017.4,31.8,37.352,1353003,20:17:04:995
0.0376,0.0402,-0.0381,45.56,5,1017.4,31.8,35.671,1354003,20:17:05:995
-0.0189,-0.0137,0.0331,45.56,5,1017.4,31.8,36.013,1355003,20:17:06:995
0.0143,-0.0088,-0.0155,45.56,5,1017.43,31.8,36.954,1356003,20:17:07:995
-0.0067,0.0366,-0.0927,45.56,5,1017.49,31.8,35.337,1357004,20:17:08:996
-6.00E-04,0.0054,0.0312,45.56,5,1017.35,31.9,35.702,1358004,20:17:09:996
0.0583,0.0136,-0.0247,45.56,5,1017.29,31.9,34.955,1359003,20:17:10:995
0.0125,0.0183,0.0214,45.56,5,1017.38,31.9,35.723,1360003,20:17:11:995
-0.0211,0.0023,0.0181,45.56,5,1017.22,31.9,35.234,1361003,20:17:12:995
0.0403,0.0361,0.0211,45.56,5,1017.19,31.9,35.858,1362003,20:17:13:995
-0.0147,0.0141,0.0375,45.56,5,1017.23,31.8,34.924,1363003,20:17:14:995
-0.0097,-0.0032,0.0838,45.56,5,1017.25,31.9,34.569,1364003,20:17:15:995
-0.0166,-0.0104,0.002,45.56,5,1017.25,31.9,34.172,1365004,20:17:16:996
-0.0218,-0.0164,0.0372,45.56,5,1017.23,31.9,34.183,1366003,20:17:17:995
0.0043,-0.0112,0.0597,45.56,5,1017.17,31.9,34.852,1367003,20:17:18:995
0.0025,-0.0086,-0.031,45.56,5,1017.22,31.9,34.528,1368004,20:17:19:996
0.0021,0.0128,-0.0024,45.56,5,1017.25,31.8,33.338,1369003,20:17:20:995
-0.0225,-0.0419,0.045,45.56,5,1017.27,31.8,33.865,1370003,20:17:21:995
-0.0383,-0.0342,0.0357,45.56,5,1017.17,31.9,33.279,1371003,20:17:22:995
-0.0134,2.00E-04,-0.1324,45.56,5,1017.17,31.8,34.917,1372003,20:17:23:995
-0.0181,0.018,0.0891,45.56,5,1017.26,31.8,32.701,1373004,20:17:24:996
0.0571,0.0196,-0.0531,45.56,5,1017.32,31.8,32.83,1374003,20:17:25:995
-0.0169,0.0254,-0.0014,45.56,5,1017.38,31.9,32.594,1375003,20:17:26:995
0.0039,0.0425,0.0097,45.56,5,1017.47,31.9,33.937,1376004,20:17:27:996
-0.0079,-0.0013,-0.0457,45.56,5,1017.41,31.9,33.052,1377004,20:17:28:996
-0.0333,-0.0291,-0.0832,45.56,5,1017.43,31.9,34.072,1378004,20:17:29:996
-0.0341,0.0261,0.0046,45.56,5,1017.32,31.9,32.779,1379003,20:17:30:995
0.0426,0.0597,-0.0105,45.56,5,1017.32,31.9,32.975,1380003,20:17:31:995
-0.0018,0.007,0.0562,45.56,5,1017.41,31.9,32.057,1381004,20:17:32:996
-0.005,-0.0319,9.00E-04,45.56,5,1017.45,31.9,33.433,1382003,20:17:33:995
0.016,0.0299,-0.0088,45.56,5,1017.49,31.9,33.123,1383004,20:17:34:996
0.0132,0.0146,0.0041,45.56,5,1017.49,31.9,33.302,1384003,20:17:35:995
0.0367,-0.0282,0.0701,45.56,5,1017.54,32,34.349,1385003,20:17:36:995
0.0323,-0.0212,0.0477,45.56,5,1017.52,32,33.46,1386003,20:17:37:995
-0.0235,-0.0309,0.0125,45.56,5,1017.54,32,33.85,1387004,20:17:38:996
0.0064,-0.0102,-0.0717,45.56,5,1017.46,32,33.215,1388003,20:17:39:995
0.0594,0.0042,0.0399,45.56,5,1017.38,32,33.809,1389004,20:17:40:996
-0.0292,0.0299,-0.0075,45.56,5,1017.41,32,34.925,1390003,20:17:41:995
-0.0137,-0.0101,-0.0732,45.56,5,1017.46,32,33.213,1391003,20:17:42:995
-0.0362,0.0158,0.0478,45.56,5,1017.47,32,34.966,1392003,20:17:43:995
-0.0729,0.0381,0.0573,45.56,5,1017.46,32.1,34.523,1393004,20:17:44:996
0.0261,0.0222,-0.0199,45.56,5,1017.27,32.1,35.805,1394004,20:17:45:996
-0.0237,0.0038,0.0649,45.56,5,1017.31,32.1,33.303,1395004,20:17:46:996
0.0408,0.0019,0.0214,45.56,5,1017.34,32.1,34.61,1396003,20:17:47:995
0.039,0.0498,-0.0175,45.56,5,1017.38,32.1,33.761,1397004,20:17:48:996
-0.0272,0.002,-0.1002,45.56,5,1017.41,32.1,34.285,1398004,20:17:49:996
0.0626,0.0178,0.0423,45.56,5,1017.4,32.1,34.416,1399003,20:17:50:995
0.0101,-0.011,0.0153,45.56,5,1017.43,32.1,32.579,1400003,20:17:51:995
0.0334,0.0118,0.0728,45.56,5,1017.27,32.1,32.809,1401003,20:17:52:995
-0.0212,0.0097,-0.0585,45.56,5,1017.27,32.1,33.425,1402003,20:17:53:995
0.0189,-0.019,-0.0249,45.56,5,1017.25,32.1,33.541,1403004,20:17:54:996
0.0021,-0.0583,-0.0528,45.56,5,1017.18,32.1,33.667,1404004,20:17:55:996
-0.0269,-0.0087,0.0344,45.56,5,1017.23,32.1,32.999,1405004,20:17:56:996
-0.0114,-0.0453,-0.0349,45.56,5,1017.28,32.1,33.193,1406003,20:17:57:995
0.018,-0.0035,-0.0043,45.56,5,1017.24,32.1,33.265,1407003,20:17:58:995
0.0108,0.0064,0.0642,45.56,5,1017.25,32.1,31.846,1408003,20:17:59:995
-0.0501,0.0353,-0.0088,45.56,5,1017.28,32.1,34.358,1409004,20:18:00:996
-0.015,-0.0033,-0.0424,45.56,5,1017.22,32.1,31.372,1410004,20:18:01:996
-0.0568,0.043,-0.0314,45.56,5,1017.25,32.1,32.684,1411004,20:18:02:996
-0.0837,2.00E-04,0.0273,45.56,5,1017.16,32.1,32.591,1412003,20:18:03:995
-0.0069,0.0194,0.0642,45.56,5,1017.26,32.1,32.227,1413003,20:18:04:995
0.0409,-0.0095,0.02,45.56,5,1017.31,32.1,33.212,1414003,20:18:05:995
0.0099,9.00E-04,-0.0385,45.56,5,1017.14,32.1,33.382,1415004,20:18:06:996
-0.0634,0.0147,-0.0334,45.56,5,1017.2,32.1,32.621,1416004,20:18:07:996
-0.0336,0.0425,-0.0027,45.56,5,1017.13,32.1,32.375,1417004,20:18:08:996
0.0669,0,0.0476,45.56,5,1017.24,32.1,34.727,1418003,20:18:09:995
0.0199,-0.0262,-0.0075,45.56,5,1017.39,32.1,33.858,1419003,20:18:10:995
0.009,-0.0051,-0.0783,45.56,5,1017.46,32.1,32.495,1420003,20:18:11:995
-0.0613,0.0281,0.0405,45.56,5,1017.49,32.1,32.364,1421004,20:18:12:996
0.0246,-0.0214,0.0014,45.56,5,1017.37,32.1,32.457,1422003,20:18:13:995
-0.0277,0.0445,0.0058,45.56,5,1017.31,32.1,33.286,1423003,20:18:14:995
0.0961,0.0265,-0.0693,45.56,5,1017.29,32.1,33.027,1424003,20:18:15:995
0.0013,-0.0323,0.004,45.56,5,1017.27,32.1,32.319,1425004,20:18:16:996
-0.0159,0.035,0.0165,45.56,5,1017.25,32.1,33.328,1426004,20:18:17:996
0.005,0.001,-0.0215,45.56,5,1017.29,32.1,33.453,1427004,20:18:18:996
-0.0772,-0.0065,0.0285,45.56,5,1017.32,32.1,32.965,1428004,20:18:19:996
-0.0159,0.0103,0.107,45.56,5,1017.35,32.1,33.671,1429004,20:18:20:996
-0.0038,-0.0259,0.0168,45.56,5,1017.32,32.1,33.362,1430004,20:18:21:996
0.0091,0.0072,0.0615,45.56,5,1017.29,32.1,34.236,1431004,20:18:22:996
-0.002,0.0108,-0.0419,45.56,5,1017.44,32.1,34.412,1432004,20:18:23:996
5.00E-04,-0.0137,-0.1364,45.56,5,1017.32,32.1,33.414,1433003,20:18:24:995
0.0062,0.0377,0.0273,45.56,5,1017.34,32.1,34.023,1434004,20:18:25:996
-0.0026,0.0185,0.0031,45.56,5,1017.4,32.1,33.322,1435004,20:18:26:996
0.0112,0.0128,-0.0471,45.56,5,1017.5,32.2,33.496,1436003,20:18:27:995
-0.0282,-0.0238,0.049,45.56,5,1017.54,32.2,32.852,1437003,20:18:28:995
0.0155,-9.00E-04,-0.0131,45.56,5,1017.45,32.2,33.176,1438003,20:18:29:995
0.0017,0.0371,-0.0251,45.56,5,1017.39,32.2,33.962,1439003,20:18:30:995
0.0015,-0.039,-0.0303,45.56,5,1017.42,32.2,32.965,1440004,20:18:31:996
0.0252,0.024,0.0446,45.56,5,1017.46,32.2,33.544,1441003,20:18:32:995
0.0374,0.0449,0.051,45.56,5,1017.51,32.2,34.206,1442003,20:18:33:995
-0.0458,0.0155,-0.0552,45.56,5,1017.49,32.2,34.1,1443003,20:18:34:995
0.0239,-0.0023,0.0391,45.56,5,1017.52,32.2,33.589,1444003,20:18:35:995
-0.0242,0.0207,-0.0442,45.56,5,1017.49,32.3,33.797,1445003,20:18:36:995
0.0282,0,-0.0644,45.56,5,1017.54,32.3,34.132,1446004,20:18:37:996
3.00E-04,-0.0256,0.0285,45.56,5,1017.53,32.3,32.488,1447003,20:18:38:995
-0.0127,0.0379,0.0491,45.56,5,1017.52,32.3,33.41,1448003,20:18:39:995
0.0673,0.0325,-0.0131,45.56,5,1017.53,32.3,32.9,1449003,20:18:40:995
-0.0483,-0.0519,-0.0623,45.56,5,1017.5,32.3,33.919,1450004,20:18:41:996
-0.0797,0.006,-0.0588,45.56,5,1017.41,32.3,32.621,1451004,20:18:42:996
0.0345,-0.0212,0.0415,45.56,5,1017.4,32.3,34.035,1452004,20:18:43:996
-0.0064,-0.0128,0.0091,45.56,5,1017.32,32.4,32.334,1453004,20:18:44:996
-0.0142,-0.0185,0.0149,45.56,5,1017.35,32.4,33.336,1454004,20:18:45:996
0.0225,0.0192,0.0244,45.56,5,1017.28,32.4,32.093,1455004,20:18:46:996
0.0295,0.0246,0.0237,45.56,5,1017.23,32.4,33.904,1456003,20:18:47:995
0.0502,0.009,0.0597,45.56,5,1017.3,32.4,33.475,1457003,20:18:48:995
-0.0319,0.0475,-0.0269,45.56,5,1017.32,32.4,32.971,1458003,20:18:49:995
0.0496,4.00E-04,0.026,45.56,5,1017.35,32.4,32.453,1459003,20:18:50:995
0.023,-0.01,-0.0768,45.56,5,1017.38,32.4,33.208,1460003,20:18:51:995
0.0283,0.0161,0.0948,45.56,5,1017.42,32.4,32.493,1461003,20:18:52:995
0.0214,0.0774,0.0389,45.56,5,1017.46,32.4,32.125,1462003,20:18:53:995
-0.0302,-0.0195,-0.0482,45.56,5,1017.48,32.4,33.686,1463003,20:18:54:995
0.0165,0.0484,0.0146,45.56,5,1017.41,32.4,32.397,1464003,20:18:55:995
-0.0067,0.047,0.0437,45.56,5,1017.47,32.4,33.529,1465003,20:18:56:995
0.042,-0.0024,-0.0035,45.56,5,1017.46,32.4,32.67,1466003,20:18:57:995
0.0075,-0.0568,-0.0426,45.56,5,1017.36,32.4,34.611,1467004,20:18:58:996
0.0094,-0.0117,-0.0516,45.56,5,1017.32,32.4,33.464,1468004,20:18:59:996
0.0229,0.005,-0.0095,45.56,5,1016.95,32.4,33.375,1469003,20:19:00:995
1.00E-04,-0.0246,-0.0033,45.56,5,1016.83,32.4,32.12,1470003,20:19:01:995
-0.028,-0.0486,-0.0486,45.56,5,1016.86,32.3,33.302,1471003,20:19:02:995
0.0246,0.0155,-0.033,45.56,5,1017.04,32.3,32.659,1472003,20:19:03:995
0.0202,-0.0277,-0.0191,45.56,5,1017.18,32.3,32.158,1473003,20:19:04:995
-0.0029,0.0109,0.0139,45.56,5,1017.24,32.3,33.039,1474004,20:19:05:996
-0.0068,-0.0422,-0.039,45.56,5,1017.16,32.3,34.42,1475004,20:19:06:996
-0.0638,-0.0291,-0.0223,45.56,5,1017.26,32.3,32.9,1476003,20:19:07:995
0.0215,0.0427,-0.056,45.56,5,1017.35,32.3,33.235,1477003,20:19:08:995
0.0076,0.0164,-0.0506,45.56,5,1017.44,32.3,33.555,1478003,20:19:09:995
3.00E-04,-0.0743,-1.00E-04,45.56,5,1017.53,32.3,33.513,1479003,20:19:10:995
-0.0176,-0.0182,7.00E-04,45.56,5,1017.49,32.4,32.861,1480004,20:19:11:996
0.0735,-2.00E-04,0.0299,45.56,5,1017.43,32.4,33.471,1481003,20:19:12:995
0.0613,-0.0029,-0.0488,45.56,5,1017.45,32.4,33.406,1482004,20:19:13:996
-0.0408,0.0147,-0.0316,45.56,5,1017.33,32.4,33.041,1483003,20:19:14:995
0.0101,-0.0198,-0.0413,45.56,5,1017.35,32.4,33.639,1484003,20:19:15:995
-0.0534,-7.00E-04,0.0352,45.56,5,1017.36,32.4,32.329,1485004,20:19:16:996
0.0109,0.0187,0.0032,45.56,5,1017.33,32.4,32.397,1486003,20:19:17:995
-0.0064,0.0391,0.0016,45.56,5,1017.37,32.4,32.845,1487003,20:19:18:995
-0.0042,-0.0133,0.0639,45.56,5,1017.21,32.4,33.116,1488004,20:19:19:996
-0.0746,-0.0195,0.031,45.56,5,1017.12,32.4,32.618,1489004,20:19:20:996
-0.0165,0.0099,0.0081,45.56,5,1017.15,32.4,32.5,1490003,20:19:21:995
0.0047,-0.0039,0.0179,45.56,5,1017.1,32.4,32.502,1491004,20:19:22:996
0.0269,0.0409,0.0616,45.56,5,1017.18,32.4,32.375,1492004,20:19:23:996
0.0282,0.024,0.0201,45.56,5,1017.3,32.4,33.32,1493004,20:19:24:996
0.0093,0.0265,-0.0684,45.56,5,1017.35,32.4,32.377,1494003,20:19:25:995
0.0165,0.0465,0.0039,45.56,5,1017.18,32.4,32.26,1495004,20:19:26:996
0.0615,-0.0405,-0.0517,45.56,5,1017.24,32.4,31.999,1496004,20:19:27:996
-0.0224,0.0203,-0.0447,45.56,5,1017.3,32.4,32.018,1497003,20:19:28:995
-0.0209,-0.0201,-0.0666,45.56,5,1017.25,32.4,32.079,1498003,20:19:29:995
-0.0354,0.0089,0.0033,45.56,5,1017.36,32.4,32.318,1499003,20:19:30:995
-0.0389,-0.0094,-0.0356,45.56,5,1017.44,32.4,31.881,1500003,20:19:31:995
0.0311,-0.0027,-0.0472,45.56,5,1017.43,32.4,32.06,1501004,20:19:32:996
0.0191,0.0046,0.0175,45.56,5,1017.47,32.4,33.488,1502004,20:19:33:996
0.0548,-0.0301,-0.0025,45.56,5,1017.37,32.4,32.84,1503004,20:19:34:996
-0.0121,0.0204,-0.0595,45.56,5,1017.41,32.4,33.259,1504003,20:19:35:995
0.0598,0,0.0389,45.56,5,1017.49,32.4,33.73,1505003,20:19:36:995
-0.0032,-0.0072,-0.073,45.56,5,1017.5,32.4,34.155,1506003,20:19:37:995
0.0049,0.0082,-0.0251,45.56,5,1017.47,32.5,32.981,1507003,20:19:38:995
0.0185,-0.0362,-0.0053,45.56,5,1017.41,32.5,33.278,1508003,20:19:39:995
-0.0076,-0.0261,0.0302,45.56,5,1017.42,32.5,33.526,1509003,20:19:40:995
0.0383,0.0795,0.03,45.56,5,1017.44,32.5,33.006,1510003,20:19:41:995
0.007,-0.0183,0.0051,45.56,5,1017.23,32.5,33.651,1511004,20:19:42:996
-0.0141,-0.0135,0.0013,45.56,5,1017.17,32.5,32.463,1512003,20:19:43:995
-0.0557,-0.0078,-0.0075,45.56,5,1017.22,32.5,32.956,1513003,20:19:44:995
-0.0031,0.0045,0.004,45.56,5,1017.34,32.5,32.422,1514003,20:19:45:995
0.0236,-0.0297,0.0301,45.56,5,1017.49,32.5,32.116,1515003,20:19:46:995
-0.0162,5.00E-04,0.0363,45.56,5,1017.59,32.5,31.701,1516003,20:19:47:995
0.0031,4.00E-04,-0.0033,45.56,5,1017.6,32.5,32.112,1517003,20:19:48:995
0.0595,0.0196,0.0633,45.56,5,1017.61,32.6,32.227,1518004,20:19:49:996
-0.0018,0.0188,-0.0436,45.56,5,1017.68,32.6,33.156,1519004,20:19:50:996
0.0718,-9.00E-04,0.0344,45.56,5,1017.64,32.6,34.115,1520004,20:19:51:996
-0.0184,0.007,0.0772,45.56,5,1017.54,32.6,32.385,1521003,20:19:52:995
0.0068,-0.056,0.0217,45.56,5,1017.4,32.6,33.561,1522003,20:19:53:995
-0.0383,-0.033,0.0034,45.56,5,1017.4,32.6,32.956,1523003,20:19:54:995
0.0321,0.0069,-0.0524,45.56,5,1017.35,32.6,34.058,1524003,20:19:55:995
-0.0273,-0.0373,-0.0129,45.56,5,1017.38,32.6,32.919,1525004,20:19:56:996
-0.0107,-0.0347,-0.032,45.56,5,1017.48,32.6,33.963,1526004,20:19:57:996
-0.0281,0.006,0.0111,45.56,5,1017.5,32.6,35.034,1527004,20:19:58:996
-0.0378,-0.0217,0.0024,45.56,5,1017.41,32.7,33.693,1528004,20:19:59:996
0.0125,-0.038,-0.0936,45.56,5,1017.33,32.7,33.605,1529004,20:20:00:996
-0.0707,-0.0201,0.0033,45.56,5,1017.37,32.7,33.66,1530004,20:20:01:996
-0.0235,-0.0147,-0.0031,45.56,5,1017.42,32.7,34.22,1531004,20:20:02:996
-0.0556,0.0081,0.0122,45.56,5,1017.23,32.7,34.148,1532004,20:20:03:996
0.0527,-0.0238,-0.0237,45.56,5,1016.79,32.7,33.666,1533004,20:20:04:996
0.0197,0.0392,0.0211,45.56,5,1016.77,32.6,34.436,1534003,20:20:05:995
-0.004,-0.024,-0.0607,45.56,5,1016.58,32.6,36.93,1535004,20:20:06:996
0.0033,0.0024,-0.0198,45.56,5,1016.36,32.5,34.356,1536003,20:20:07:995
-0.0374,-0.024,-0.0166,45.56,5,1016.22,32.4,33.908,1537004,20:20:08:996
-0.0298,-0.013,0.0569,45.56,5,1016.13,32.3,35.235,1538004,20:20:09:996
-0.0215,0.0085,0.0426,45.56,5,1016.17,32.2,34.711,1539003,20:20:10:995
0.0746,-0.0374,0.0517,45.56,5,1016.16,32.2,34.542,1540004,20:20:11:996
-0.0117,0.0335,-0.003,45.56,5,1016.14,32.1,34.449,1541003,20:20:12:995
-0.014,-0.0145,-0.0761,45.56,5,1016.14,32,33.984,1542004,20:20:13:996
0.0178,-0.0044,-0.0115,45.56,5,1016.17,31.9,34.786,1543003,20:20:14:995
-0.0487,0.0132,-0.0164,45.56,5,1016.23,31.8,35.15,1544004,20:20:15:996
-0.0107,-0.0353,0.0103,45.56,5,1016.26,31.8,35.273,1545004,20:20:16:996
-0.0128,0.0126,0.033,45.56,5,1016.32,31.7,35.05,1546004,20:20:17:996
-0.0348,-0.0545,-0.0011,45.56,5,1016.36,31.7,34.396,1547003,20:20:18:995
-0.0552,0.0229,-0.0039,45.56,5,1016.42,31.6,34.482,1548004,20:20:19:996
-0.0379,0.0124,0.0491,45.56,5,1016.45,31.5,35.639,1549003,20:20:20:995
-0.0411,0.0223,-0.0077,45.56,5,1016.5,31.5,35.245,1550004,20:20:21:996
-0.0582,-0.0221,0.0034,45.56,5,1016.54,31.4,34.921,1551004,20:20:22:996
-0.0122,4.00E-04,-0.0364,45.56,5,1016.54,31.4,34.986,1552003,20:20:23:995
0.0176,-0.0209,0.011,45.56,5,1016.56,31.3,35.29,1553004,20:20:24:996
0.0248,0.0344,0.0148,45.56,5,1016.6,31.3,35.239,1554004,20:20:25:996
0.0388,0.0463,-0.0401,45.56,5,1016.6,31.2,34.608,1555003,20:20:26:995
-0.0134,-0.0197,-0.0329,45.56,5,1016.62,31.2,35.952,1556003,20:20:27:995
-0.0529,-0.0042,0.0776,45.56,5,1016.64,31.1,35.696,1557004,20:20:28:996
0.0048,0.0394,-0.0713,45.56,5,1016.68,31.1,35.34,1558003,20:20:29:995
0.0377,0.001,-0.0286,45.56,5,1016.68,31.1,35.061,1559009,20:20:31:001
0.0269,-0.0326,-0.1038,45.56,5,1016.7,31,35.416,1560004,20:20:31:996
0.0391,-0.0199,-0.0494,45.56,5,1016.72,31,35.71,1561004,20:20:32:996
0.0617,0.0267,-0.0191,45.56,5,1016.74,30.9,35.296,1562004,20:20:33:996
0.0418,-0.0045,0.0122,45.56,5,1016.76,30.9,35.575,1563004,20:20:34:996
0.0273,-0.0069,0.0025,45.56,5,1016.77,30.9,34.661,1564003,20:20:35:995
-0.0148,0.0315,0.0103,45.56,5,1016.77,30.9,35.361,1565003,20:20:36:995
-0.0387,-0.0284,0.0628,45.56,5,1016.79,30.8,35.374,1566004,20:20:37:996
-0.0559,-0.0017,-0.0429,45.56,5,1016.81,30.8,35.457,1567003,20:20:38:995
-0.0029,0.0106,0.0239,45.56,5,1016.82,30.8,36.146,1568004,20:20:39:996
-0.0186,-0.0637,-0.0982,45.56,5,1016.82,30.7,35.262,1569004,20:20:40:996
0.003,0.0074,0.1062,45.56,5,1016.84,30.7,35.631,1570003,20:20:41:995
-0.0407,-0.0208,0.0314,45.56,5,1016.87,30.7,36.102,1571004,20:20:42:996
0.0324,-0.0595,-0.0042,45.56,5,1016.87,30.7,36.13,1572003,20:20:43:995
-0.0212,0.0316,-0.0245,45.56,5,1016.89,30.6,35.4,1573004,20:20:44:996
0.0434,-0.0369,0.0025,45.56,5,1016.91,30.6,34.71,1574004,20:20:45:996
-0.0565,-0.0111,-0.1045,45.56,5,1016.91,30.6,35.593,1575003,20:20:46:995
-0.0203,-0.0114,0.0488,45.56,5,1016.97,30.6,35.266,1576004,20:20:47:996
-0.0053,5.00E-04,0.0313,45.56,5,1017.01,30.5,35.472,1577004,20:20:48:996
0.0315,0.0237,0.0292,45.56,5,1017,30.5,35.347,1578004,20:20:49:996
0.059,0.0325,0.0461,45.56,5,1016.99,30.5,34.299,1579003,20:20:50:995
-0.003,0.009,0.0168,45.56,5,1016.99,30.5,34.05,1580004,20:20:51:996
0.053,-0.0302,0.082,45.56,5,1017.01,30.5,34.589,1581003,20:20:52:995
-0.0186,0.0169,0.043,45.56,5,1017.03,30.5,35.151,1582005,20:20:53:997
-0.0683,-0.0264,0.0484,45.56,5,1017.04,30.4,33.756,1583004,20:20:54:996
-0.0378,-0.0553,0.0056,45.56,5,1017.03,30.4,36.246,1584003,20:20:55:995
0.016,-0.0016,0.0065,45.56,5,1017.05,30.4,33.718,1585004,20:20:56:996
4.00E-04,-0.0265,0.0255,45.56,5,1017.03,30.4,41.754,1586003,20:20:57:995
0.024,0.0082,0.0012,45.56,5,1017.06,30.4,36.774,1587004,20:20:58:996
-0.0195,0.0188,-0.0065,45.56,5,1017.05,30.4,33.101,1588003,20:20:59:995
-0.0483,-0.0492,0.0226,45.56,5,1017.05,30.3,34.406,1589004,20:21:00:996
-0.0284,-0.0288,-0.0013,45.56,5,1017.04,30.3,36.039,1590003,20:21:01:995
-0.0112,-0.0096,-0.0933,45.56,5,1017.05,30.3,32.447,1591004,20:21:02:996
0.0107,-0.0379,-0.0373,45.56,5,1017.09,30.3,33.376,1592004,20:21:03:996
0.0743,0.0118,0.0034,45.56,5,1017.08,30.3,34.162,1593004,20:21:04:996
0.0208,0.0285,-0.0139,45.56,5,1017.07,30.2,36.693,1594003,20:21:05:995
0.0299,0.0014,0.0218,45.56,5,1017.1,30.2,34.099,1595004,20:21:06:996
0.0017,-0.0115,0.0276,45.56,5,1017.1,30.2,42.204,1596004,20:21:07:996
0.0645,-0.0137,-0.0079,45.56,5,1017.12,30.2,38.296,1597004,20:21:08:996
-0.0256,-0.0024,0.0427,45.56,5,1017.1,30.2,39.898,1598004,20:21:09:996
0.0228,-0.0343,-0.0095,45.56,5,1017.12,30.2,35.047,1599003,20:21:10:995
-0.0106,0.0055,0.0247,45.56,5,1017.11,30.2,35.601,1600004,20:21:11:996
0.0331,0.0314,0.0828,45.56,5,1017.1,30.1,35.578,1601003,20:21:12:995
-0.0301,-0.0468,0.0047,45.56,5,1017.1,30.1,35.533,1602004,20:21:13:996
-0.0352,0.0281,-0.0051,45.56,5,1017.11,30.1,38.754,1603003,20:21:14:995
-0.0161,0.0321,0.1021,45.56,5,1017.11,30.1,37.491,1604004,20:21:15:996
0.0345,0.0019,-0.0747,45.56,5,1017.13,30.1,36.382,1605004,20:21:16:996
0.0217,0.0078,-0.01,45.56,5,1017.14,30.1,35.67,1606004,20:21:17:996
0.0259,0.0463,-0.0505,45.56,5,1017.14,30.1,36.417,1607003,20:21:18:995
0.0054,-0.0112,-0.0392,45.56,5,1017.14,30.1,36.909,1608004,20:21:19:996
0.0638,0.0077,-0.0154,45.56,5,1017.17,30.1,36.232,1609004,20:21:20:996
0.06,0.0429,-0.0058,45.56,5,1017.17,30,35.363,1610004,20:21:21:996
0.0159,0.0081,0.0046,45.56,5,1017.16,30,36.371,1611004,20:21:22:996
0.0014,0.0095,-0.003,45.56,5,1017.16,30,34.681,1612003,20:21:23:995
-0.0271,-0.019,-0.0493,45.56,5,1017.16,30,34.276,1613004,20:21:24:996
0.0052,-0.0042,-0.0208,45.56,5,1017.16,30,36.322,1614003,20:21:25:995
0.0288,0.0184,-0.0244,45.56,5,1017.16,30,33.343,1615004,20:21:26:996
0.0185,0.0507,0.0571,45.56,5,1017.15,30,33.543,1616004,20:21:27:996
0.0424,0.0158,0.0247,45.56,5,1017.16,30,32.907,1617004,20:21:28:996
8.00E-04,-0.002,-0.0235,45.56,5,1017.16,30,33.66,1618003,20:21:29:995
-0.022,-0.0096,-0.0215,45.56,5,1017.17,29.9,32.927,1619004,20:21:30:996
0.0834,0.0042,0.0423,45.56,5,1017.17,29.9,36.202,1620004,20:21:31:996
-0.0198,-0.0323,0.0138,45.56,5,1017.18,29.9,34.431,1621003,20:21:32:995
0.048,-0.0287,-0.0179,45.56,5,1017.18,29.9,34.999,1622003,20:21:33:995
0.0273,0.0363,0.0269,45.56,5,1017.18,29.9,32.969,1623004,20:21:34:996
-0.0215,0.0089,-0.0022,45.56,5,1017.2,29.9,33.295,1624004,20:21:35:996
0.0421,0.0514,0.0509,45.56,5,1017.18,29.9,33.705,1625004,20:21:36:996
-0.0421,-0.0027,0.0476,45.56,5,1017.22,29.9,33.161,1626004,20:21:37:996
-0.0176,-0.0546,0.0298,45.56,5,1017.21,29.9,33.602,1627003,20:21:38:995
-0.0055,0.02,-0.0957,45.56,5,1017.18,29.9,34.104,1628003,20:21:39:995
0.0349,-0.0393,-0.0455,45.56,5,1017.13,29.9,34.529,1629004,20:21:40:996
0.0115,-0.0039,-0.0044,45.56,5,1017.16,29.9,43.062,1630004,20:21:41:996
-0.0098,-0.0025,0.0782,45.56,5,1017.15,29.8,37.89,1631003,20:21:42:995
0.0405,-0.0024,0.0232,45.56,5,1017.14,29.8,40.157,1632004,20:21:43:996
-0.0168,0.0097,-0.006,45.56,5,1017.13,29.8,35.847,1633004,20:21:44:996
0.0357,-0.0159,0.0025,45.56,5,1017.14,29.8,34.947,1634003,20:21:45:995
0.0491,-0.0212,0.0184,45.56,5,1017.14,29.8,35.069,1635004,20:21:46:996
0.0136,0.0303,-0.0396,45.56,5,1017.15,29.8,33.722,1636003,20:21:47:995
0.0103,-0.0537,0.0011,45.56,5,1017.13,29.8,34.929,1637004,20:21:48:996
-0.0231,0.0023,0.1043,45.56,5,1017.16,29.8,34.905,1638003,20:21:49:995
-0.0356,0.0228,-0.0307,45.56,5,1017.16,29.7,36.596,1639004,20:21:50:996
-0.0041,0.0302,0.0484,45.56,5,1017.17,29.7,34.718,1640004,20:21:51:996
-0.0427,-0.0058,-0.0464,45.56,5,1017.16,29.7,35.667,1641003,20:21:52:995
-0.0241,-0.0181,-0.0724,45.56,5,1017.16,29.7,35.837,1642004,20:21:53:996
0.016,0.0552,0.0518,45.56,5,1017.18,29.7,35.463,1643004,20:21:54:996
0.0243,-0.0055,0.0162,45.56,5,1017.16,29.7,36.265,1644004,20:21:55:996
0.0163,0.0068,0.0294,45.56,5,1017.15,29.7,36.248,1645004,20:21:56:996
-0.0125,0.025,-0.0059,45.56,5,1017.16,29.7,36.517,1646004,20:21:57:996
-0.0034,-0.0215,0.0202,45.56,5,1017.17,29.7,35.696,1647003,20:21:58:995
0.087,0.0218,-0.0058,45.56,5,1017.16,29.6,35.81,1648003,20:21:59:995
0.0488,-0.0153,-0.04,45.56,5,1017.18,29.6,35.561,1649004,20:22:00:996
-0.0171,-0.0216,-5.00E-04,45.56,5,1017.14,29.6,35.64,1650003,20:22:01:995
0.04,6.00E-04,0.0054,45.56,5,1017.19,29.6,35.394,1651003,20:22:02:995
-0.0142,0.0413,-0.0145,45.56,5,1017.21,29.6,35.669,1652004,20:22:03:996
0.0495,0.005,-0.0337,45.56,5,1017.19,29.6,35.668,1653004,20:22:04:996
-0.0129,1.00E-04,0.0175,45.56,5,1017.18,29.6,35.922,1654004,20:22:05:996
0.0119,-0.0302,-0.008,45.56,5,1017.2,29.6,34.959,1655003,20:22:06:995
-0.0181,0.0276,0.0024,45.56,5,1017.23,29.6,36.324,1656004,20:22:07:996
-0.0568,0.0406,-0.0211,45.56,5,1017.22,29.6,35.815,1657003,20:22:08:995
-0.0113,-0.0528,2.00E-04,45.56,5,1017.21,29.6,35.529,1658004,20:22:09:996
-0.0173,-0.0181,-0.0175,45.56,5,1017.22,29.5,35.503,1659004,20:22:10:996
0.0232,-0.0155,-0.0306,45.56,5,1017.24,29.5,35.873,1660004,20:22:11:996
0.0093,0.0153,0.0585,45.56,5,1017.22,29.5,37.684,1661003,20:22:12:995
-0.0105,0.0073,0.019,45.56,5,1017.22,29.5,35.471,1662003,20:22:13:995
-0.0342,0.0107,-0.0227,45.56,5,1017.23,29.5,36.656,1663004,20:22:14:996
-0.0291,-0.0508,-0.0038,45.56,5,1017.23,29.5,36.327,1664003,20:22:15:995
0.0301,0.0214,0.0194,45.56,5,1017.37,29.5,35.674,1665003,20:22:16:995
-0.0164,-0.0015,0.0242,45.56,5,1017.37,29.5,35.551,1666003,20:22:17:995
-0.0299,0.0408,-0.0225,45.56,5,1017.33,29.5,35.721,1667004,20:22:18:996
-0.0025,0.0627,-0.0558,45.56,5,1017.28,29.5,36.337,1668003,20:22:19:995
2.00E-04,0.0041,0.0248,45.56,5,1017.3,29.5,35.792,1669004,20:22:20:996
-0.043,0.0164,-0.0187,45.56,5,1017.27,29.5,36.711,1670004,20:22:21:996
0.0064,-0.0012,0.0043,45.56,5,1017.25,29.5,35.815,1671005,20:22:22:997
-0.0221,0.0499,-0.0228,45.56,5,1017.26,29.5,35.406,1672003,20:22:23:995
-0.0458,-0.0432,-0.0172,45.56,5,1017.25,29.5,35.783,1673004,20:22:24:996
-0.0017,-0.0074,0.037,45.56,5,1017.24,29.5,37.336,1674004,20:22:25:996
0.0033,-0.0369,-0.0287,45.56,5,1017.21,29.5,36.565,1675003,20:22:26:995
-0.0615,0.0106,-0.0032,45.56,5,1017.21,29.4,35.332,1676004,20:22:27:996
-0.0189,0.0058,-0.079,45.56,5,1017.23,29.4,35.585,1677004,20:22:28:996
0.0264,0.0188,0.0399,45.56,5,1017.22,29.4,35.712,1678004,20:22:29:996
-0.017,0.0053,-0.0028,45.56,5,1017.21,29.4,35.423,1679004,20:22:30:996
-0.0354,-0.0087,0.0797,45.56,5,1017.35,29.4,35.071,1680004,20:22:31:996
-0.0355,0.0093,-0.0262,45.56,5,1017.32,29.4,33.375,1681004,20:22:32:996
0.0477,0.0123,0.0435,45.56,5,1017.31,29.4,34.896,1682004,20:22:33:996
-0.043,-0.0498,-0.0398,45.56,5,1017.27,29.4,33.602,1683003,20:22:34:995
-0.0467,-0.012,0.083,45.56,5,1017.24,29.4,34.201,1684004,20:22:35:996
-0.0164,-2.00E-04,0.0173,45.56,5,1017.23,29.4,33.585,1685003,20:22:36:995
-0.0078,-0.0054,0.0422,45.56,5,1017.26,29.4,33.048,1686003,20:22:37:995
0.023,0.022,0.0224,45.56,5,1017.25,29.4,35.862,1687004,20:22:38:996
0.0341,0,-0.0217,45.56,5,1017.23,29.4,34.391,1688004,20:22:39:996
-0.0052,-0.0283,-0.012,45.56,5,1017.22,29.4,33.898,1689004,20:22:40:996
-0.0815,0.0048,0.0192,45.56,5,1017.24,29.4,33.728,1690004,20:22:41:996
0.0124,0.0399,-0.0201,45.56,5,1017.22,29.4,35.143,1691003,20:22:42:995
-5.00E-04,-0.0107,-0.0227,45.56,5,1017.23,29.3,34.485,1692004,20:22:43:996
-0.053,-0.0479,-0.0229,45.56,5,1017.22,29.3,34.833,1693003,20:22:44:995
-0.0463,0.0506,0.0145,45.56,5,1017.2,29.3,33.854,1694004,20:22:45:996
0.0138,-0.0321,-0.0939,45.56,5,1017.24,29.3,36.064,1695004,20:22:46:996
0.0567,0.0023,0.0239,45.56,5,1017.22,29.3,34.492,1696004,20:22:47:996
0.0396,0.0112,-0.0122,45.56,5,1017.19,29.3,35.382,1697004,20:22:48:996
-0.0186,0.0258,0.036,45.56,5,1017.23,29.3,34.229,1698003,20:22:49:995
-0.0758,-0.008,0.0013,45.56,5,1017.21,29.3,37.821,1699004,20:22:50:996
-0.0118,-0.022,-0.0109,45.56,5,1017.24,29.3,35.905,1700007,20:22:51:999
-0.0463,-0.0195,-0.0111,45.56,5,1017.25,29.3,38.371,1701004,20:22:52:996
0.0328,0.0331,-0.065,45.56,5,1017.24,29.3,44.389,1702004,20:22:53:996
-0.0025,0.0086,-0.0595,45.56,5,1017.22,29.2,37.047,1703004,20:22:54:996
-0.023,-0.0039,-0.0302,45.56,5,1017.26,29.2,34.844,1704003,20:22:55:995
0.0403,-0.0393,0.0492,45.56,5,1017.24,29.2,34.156,1705004,20:22:56:996
0.02,0.0126,0.0171,45.56,5,1017.24,29.2,34.692,1706004,20:22:57:996
0.0178,-0.0311,0.0041,45.56,5,1017.23,29.2,35.487,1707004,20:22:58:996
-0.0391,0.0091,-0.0527,45.56,5,1017.27,29.2,35.359,1708004,20:22:59:996
0.0573,0.0426,-0.0111,45.56,5,1017.27,29.2,35.39,1709003,20:23:00:995
-0.0422,-0.012,-0.0248,45.56,5,1017.27,29.2,36.845,1710003,20:23:01:995
0.0262,0.0237,0.0116,45.56,5,1017.26,29.2,44.016,1711003,20:23:02:995
0.0219,0.0088,-0.0111,45.56,5,1017.26,29.2,35.683,1712004,20:23:03:996
-0.0069,0.0121,-0.034,45.56,5,1017.26,29.2,34.86,1713004,20:23:04:996
0.0101,0.0214,-0.0731,45.56,5,1017.28,29.2,35.549,1714004,20:23:05:996
-0.0117,0.047,-0.0337,45.56,5,1017.29,29.2,36.289,1715004,20:23:06:996
0.0094,0.0343,0.0468,45.56,5,1017.27,29.1,35.609,1716003,20:23:07:995
0.0039,-0.0246,-0.1041,45.56,5,1017.28,29.1,36.068,1717004,20:23:08:996
-0.0229,0.0072,0.0792,45.56,5,1017.26,29.1,35.779,1718004,20:23:09:996
0.0576,0.028,0.016,45.56,5,1017.29,29.1,36.906,1719005,20:23:10:997
0.0044,-0.0279,-0.0206,45.56,5,1017.29,29.1,35.12,1720003,20:23:11:995
-0.0433,-0.0355,0.0233,45.56,5,1017.3,29.1,36.361,1721004,20:23:12:996
0.0112,0.0104,-0.0014,45.56,5,1017.29,29.1,36.682,1722004,20:23:13:996
0.0082,0.0288,-0.0053,45.56,5,1017.29,29.1,36.84,1723003,20:23:14:995
-0.0241,-0.0236,-0.0176,45.56,5,1017.28,29.1,36.581,1724004,20:23:15:996
