LINEAR ACCELERATION X,LINEAR ACCELERATION Y,LINEAR ACCELERATION Z,LIGHT (lux),PROXIMITY (i),SOUND LEVEL (dB),YYYY-MO-DD HH-MI-SS_SSS
0.0251,0.0092,-0.0519,44.433,2,40.607,15:21:42:133
-0.0392,-0.0129,0.0424,44.4322,2,21.2,15:21:43:133
-0.017,0.0486,0.0087,44.4332,2,39.344,15:21:44:133
-0.0175,-0.0252,-0.0281,44.4329,2,41.096,15:21:45:133
-0.006,0.05,-0.0133,44.5662,2,36.646,15:21:46:134
-0.0238,0.0361,-0.0826,44.5662,2,45.491,15:21:47:134
0.0446,0.0185,-0.0065,44.4337,2,40.724,15:21:48:133
-0.0139,0.0356,-0.0103,44.5666,2,36.465,15:21:49:134
-0.0347,0.0039,0.0098,44.434,2,34.534,15:21:50:133
0.0054,2.00E-04,0.0076,45.4337,2,35.001,15:21:51:135
-0.0305,-0.0256,-0.0135,44.5665,2,42.049,15:21:52:133
-0.0141,0.0782,-0.0858,44.5664,2,31.568,15:21:53:133
-0.095,-0.0457,-0.0037,44.8679,2,50.98,15:21:54:134
0.0024,-0.1235,0.1241,44.4328,2,62.788,15:21:55:133
-0.0549,-0.0282,0.0938,45,2,54.387,15:21:56:133
-0.0294,-0.0744,-0.0619,45.4329,2,40.528,15:21:57:133
-0.0075,0.0275,0.0194,45.4339,2,21.11,15:21:58:134
0.009,-0.1224,-0.0267,44.5664,2,44.595,15:21:59:134
0.006,-0.062,-0.0744,44.8643,2,49.789,15:22:00:133
0.0109,-0.0271,-0.0308,45,2,59.099,15:22:01:134
-0.0437,-0.0294,0.1016,45.5764,2,61.811,15:22:02:133
0.0332,-0.0156,0.0304,45.5691,2,40.243,15:22:03:134
-0.0038,-0.0135,0.0172,45.4328,2,18.226,15:22:04:134
-0.0208,0.0065,-0.0202,45.5662,2,43.519,15:22:05:133
-0.0116,0.0286,-0.0632,45.5736,2,38.323,15:22:06:134
0.0105,-0.0109,-0.0416,45.5662,2,18.331,15:22:07:133
0.0082,0.018,-0.0179,45.5667,2,28.453,15:22:08:133
-0.0343,0.0086,-0.0062,45,2,24.686,15:22:09:134
0.0304,0.0715,-0.0331,45,2,35.423,15:22:10:134
-0.0028,-0.053,-0.0382,44.5662,2,62.099,15:22:11:134
-0.0043,0.056,0.0591,45.4334,2,43.575,15:22:12:134
-0.0087,-0.0393,0.0322,44.8676,2,15.372,15:22:13:134
0.0293,0.0148,-3.00E-04,44.8675,2,36.441,15:22:14:133
-0.0313,0.0214,0.012,45,2,43.465,15:22:15:133
0.0012,-0.0105,-0.0595,45,2,48.634,15:22:16:134
0.0018,0.0105,0.0201,44.8676,2,46.703,15:22:17:134
-0.0351,5.00E-04,0.0716,44.8662,2,49.315,15:22:18:135
-0.005,0.0204,-0.0367,44.8519,2,46.628,15:22:19:134
0.021,-0.0012,0.0112,44.8477,2,42.173,15:22:20:134
0.0024,-0.0467,0.0859,45.4267,2,35.529,15:22:21:134
0.0079,-0.0112,-0.0326,45,2,31.498,15:22:22:134
-0.0011,-0.0279,-0.0334,44.837,2,28.846,15:22:23:134
0.0554,0.0281,-0.0368,44.8471,2,33.918,15:22:24:135
0.0101,0.0098,-0.0535,45.4298,2,32.032,15:22:25:134
0.0229,0.0194,0.0429,45.1523,2,33.498,15:22:26:133
0.0334,-0.0109,0.0201,45.4289,2,41.98,15:22:27:133
0.0314,0.0078,0.0627,45.1507,2,40.561,15:22:28:134
0.0159,0.0167,0.0085,45,2,51.167,15:22:29:134
0.0085,-0.0049,-0.0623,44.8524,2,24.755,15:22:30:134
0.0234,0.0623,-0.1526,45.434,2,59.275,15:22:31:134
-0.0034,-0.0264,-0.007,45.4316,2,44.769,15:22:32:133
0.0306,-0.0213,0.078,45.5799,2,31.867,15:22:33:134
0.0224,-0.0522,0.0394,45.5741,2,47.315,15:22:34:134
0.0157,-0.0428,-0.0113,45,2,43.451,15:22:35:134
0.0271,0.0013,0.0239,44.4319,2,44.569,15:22:36:134
0.0404,0.0489,0.0166,45.4315,2,45.829,15:22:37:135
0.0259,0.0067,0.0649,45.5744,2,43.606,15:22:38:134
0.0394,-0.0042,0.0053,45.4311,2,32.083,15:22:39:134
0.0249,0.0362,-0.0046,44.5814,2,34.549,15:22:40:134
0.0402,0.0121,-0.0067,44.8561,2,46.691,15:22:41:133
0.0485,0.0235,0.0011,44.8361,2,28.158,15:22:42:134
0.0067,0.0273,-0.0188,45.4308,2,26.071,15:22:43:134
0.0394,0.0204,-0.0466,45.4255,2,49.395,15:22:44:134
0.024,-0.0237,-0.0041,45.4271,2,29.827,15:22:45:133
0.0149,-0.0377,0.0246,45.4336,2,37.971,15:22:46:133
0.041,0.0147,0.0491,44.5661,2,41.479,15:22:47:134
-0.0113,0.0198,-0.0211,45.571,2,36.871,15:22:48:133
0.0231,-0.012,0.0101,45.4314,2,40.996,15:22:49:134
-0.0122,-0.0143,0.0185,45,2,40.704,15:22:50:135
0.0647,-0.036,-0.0703,45.5712,2,44.868,15:22:51:134
0.0211,0.0341,0.0166,45.1485,2,39.733,15:22:52:134
0.0391,-0.0049,0.1121,45.5765,2,44.453,15:22:53:134
0.0551,0.0266,0.0498,44.8612,2,38.581,15:22:54:134
0.0302,-0.0042,0.0283,44.8398,2,37.055,15:22:55:135
-0.0058,0.0376,0.0697,45.418,2,37.777,15:22:56:134
0.0155,-0.0026,-0.0176,45.4198,2,33.933,15:22:57:136
0.0506,-0.0032,-0.0148,45.1585,2,33.714,15:22:58:134
0.0539,-3.00E-04,0.0837,46,2,37.132,15:22:59:135
0.0432,-0.032,0.0282,45.4191,2,36.323,15:23:00:134
0.061,0.0054,-0.0305,45.5795,2,27.361,15:23:01:135
0.0399,0.0036,-0.0244,45.4184,2,31.331,15:23:02:133
0.0165,-0.0191,-0.0202,45.5799,2,35.144,15:23:03:134
0.0213,0.0149,0.038,45.4327,2,37.061,15:23:04:133
0.0137,-0.0072,-0.0328,45.4074,2,33.597,15:23:05:135
0.0116,0.0075,0.0834,45.5816,2,26.411,15:23:06:135
0.0065,0.0328,-0.0239,45.5814,2,30.198,15:23:07:135
0.0179,-8.00E-04,-0.0075,45,2,33.969,15:23:08:134
0.0179,-0.0342,0.0414,44.5671,2,29.351,15:23:09:134
4.00E-04,0.0033,0.0939,45,2,33.437,15:23:10:135
0.0365,0.0168,-0.0285,45.1434,2,40.396,15:23:11:134
-0.0157,-0.0034,0.0608,45.4246,2,15.917,15:23:12:134
0.0418,0.0436,-0.0188,45.1472,2,17.161,15:23:13:134
-7.00E-04,-0.0103,0.0279,44.8557,2,34.08,15:23:14:134
-0.0274,0.0082,0.0419,44.8526,2,34.421,15:23:15:135
-0.0089,0.0032,0.0193,46,2,36.116,15:23:16:135
-0.0095,0.0114,0.0039,44,2,37.917,15:23:17:134
-0.0089,0.0309,-0.0483,44.5739,2,41.123,15:23:18:134
-0.0089,-0.0094,0.0333,45.1537,2,38.983,15:23:19:135
-0.0079,0.0188,-0.0312,44.8294,2,37.836,15:23:20:134
0.047,0.0063,-0.0421,45.148,2,43.087,15:23:21:134
-0.0343,0.0031,-0.0048,44.855,2,39.423,15:23:22:134
0.0424,-0.0285,0.0079,44.8401,2,36.205,15:23:23:134
0.0048,-0.0218,-0.0063,45.4173,2,32.953,15:23:24:135
0.0168,0.0031,0.0673,45.4203,2,40.715,15:23:25:135
0.0128,-0.0052,-0.1019,45.5809,2,33.452,15:23:26:134
-0.0083,-0.0285,-0.0033,45.132,2,35.513,15:23:27:134
-0.0389,-0.0168,0.0131,45,2,36.666,15:23:28:134
0.0045,-0.032,0.0831,45.5815,2,30.427,15:23:29:137
0.0071,-7.00E-04,0.0477,45.5814,2,27.193,15:23:30:134
0.0207,-0.0275,0.031,45.1631,2,29.138,15:23:31:135
-0.019,0.035,0.0044,44.8503,2,26.253,15:23:32:134
0.0038,0.0024,-0.0018,44.8398,2,29.453,15:23:33:135
-0.0093,-0.0034,-0.0071,45.1647,2,30.65,15:23:34:134
-0.0152,-0.0235,0.0406,44.8373,2,32.705,15:23:35:135
0.0026,0.0186,-0.0118,45.4227,2,34.634,15:23:36:147
-0.0041,-0.0193,0.0541,45.4184,2,35.244,15:23:37:135
0.012,-0.0214,-5.00E-04,45.4185,2,39.636,15:23:38:134
0.0081,0.0258,-0.014,45.1634,2,35.946,15:23:39:134
-0.0014,0.0018,0.0122,45.4192,2,41.711,15:23:40:134
0.0191,0.0024,0.0377,45.4013,2,40.817,15:23:41:135
0.0128,-0.0236,-0.0336,45.5673,2,42.39,15:23:42:134
0.0031,-0.0096,0.0901,45.5706,2,41.635,15:23:43:134
0.0019,-0.0053,0.04,45,2,40.887,15:23:44:134
0.0041,-0.0227,0.0172,45.4309,2,36.109,15:23:45:134
-0.0021,0.0417,0.0652,44.8556,2,34.998,15:23:46:134
-0.0161,0.0104,0.0104,44,2,40.358,15:23:47:134
0.0148,-0.0266,0.0142,45.4243,2,42.72,15:23:48:135
0.0039,-0.0043,0.0016,45.576,2,45.271,15:23:49:134
0.0179,-0.0087,0.0354,45.4301,2,42.228,15:23:50:134
0.0306,-0.0176,-0.0333,45.4315,2,45.568,15:23:51:134
0.0194,0.0429,0.0013,45,2,31.046,15:23:52:134
0.0106,-0.0226,0.031,44,2,47.511,15:23:53:135
-0.0135,0.0054,0.0763,45.5813,2,41.427,15:23:54:134
0.0261,-0.013,-0.0258,45,2,39.283,15:23:55:136
0.0176,-0.0118,-0.0033,45,2,35.554,15:23:56:134
-0.0108,-0.0079,-0.0086,45.583,2,32.541,15:23:57:135
-0.0061,-0.0184,-0.0052,45.1589,2,42.364,15:23:58:135
-0.0226,-0.0259,0.0011,44.8385,2,38.115,15:23:59:135
0.0122,0.0036,0.0607,45,2,29.016,15:24:00:134
-0.0017,0.014,-0.0346,44.4256,2,29.436,15:24:01:137
-0.0249,0.0194,-0.0351,45.1581,2,28.281,15:24:02:134
-0.0314,0.0082,-0.0211,45,2,36.231,15:24:03:137
0.0014,0.012,0.0842,44,2,37.1,15:24:04:135
0.0259,0.0052,-0.0115,44,2,21.523,15:24:05:135
0.0015,0.0193,0.0237,44.5856,2,48.075,15:24:06:134
0.0151,-0.0508,-0.0432,45.4195,2,61.752,15:24:07:136
-0.0335,-0.0043,-0.0484,45.5796,2,51.299,15:24:08:135
-0.0141,0.0146,0.0102,44.8398,2,40.77,15:24:09:134
1.00E-04,0.0055,0.0098,45.5817,2,37.947,15:24:10:135
0.0156,-9.00E-04,-0.0654,44.5801,2,41.527,15:24:11:134
-0.0146,-0.0683,0.0283,46,2,51.701,15:24:12:133
0.0153,-0.0413,-0.0467,44.431,2,38.436,15:24:13:134
0.0142,-0.0015,0.0216,45,2,51.24,15:24:14:134
0.0105,0.0234,-0.0464,45.5682,2,53.776,15:24:15:134
-0.0432,-0.007,0.0797,44.428,2,52.553,15:24:16:134
-6.00E-04,0.0172,-0.0186,44.4271,2,44.231,15:24:17:135
0.0099,-0.0119,-0.0295,44.8373,2,46.651,15:24:18:134
-0.0158,0.052,-0.0248,44.5784,2,43.538,15:24:19:135
-0.0247,0.0091,-0.0596,44.4198,2,37.418,15:24:20:135
0.0379,0.0236,0.0042,44.5812,2,39.582,15:24:21:136
-0.0114,0.0359,0.0106,45.4231,2,48.236,15:24:22:136
0.0111,0.0304,-0.0128,44.5795,2,40.488,15:24:23:134
-0.0468,0.0281,-0.0097,44.5656,2,46.573,15:24:24:134
-0.033,-0.0035,0.0258,44.4335,2,40.051,15:24:25:134
0.0265,0.0375,-0.0073,45.1318,2,45.213,15:24:26:134
-0.0443,-0.0378,0.0216,44.5821,2,51.031,15:24:27:136
-0.0272,0.0313,-0.032,45,2,68.648,15:24:28:133
0.0014,0.0264,-0.0582,45,2,60.809,15:24:29:135
0.001,0.0286,-0.0013,44.4194,2,53.262,15:24:30:134
0.0115,-0.004,-0.0556,44.5758,2,66.084,15:24:31:135
-0.0507,0.0104,0.0065,44.5804,2,61.687,15:24:32:134
0.0166,-0.0086,0.0168,44.5808,2,50.406,15:24:33:134
0.0013,0.0119,0.0247,44.4213,2,51.175,15:24:34:136
-0.0503,-0.0205,0.0312,44.4212,2,56.176,15:24:35:136
0.0068,-0.0021,0.0563,45,2,56.344,15:24:36:136
-0.0172,0.015,-0.0118,44.4026,2,70.918,15:24:37:134
0.0057,0.0278,-0.0103,45,2,38.412,15:24:38:135
0.0116,0.0215,-0.0522,44.4185,2,43.215,15:24:39:134
0.0097,-0.0156,0.0283,44.8468,2,47.921,15:24:40:135
-0.0223,0.0118,-0.036,44.5794,2,54.444,15:24:41:134
-0.0342,0.0237,-0.0073,45.1538,2,33.502,15:24:42:133
-0.0406,-0.0016,0.0617,45.1617,2,27.949,15:24:43:135
0.0204,0.0165,-0.0444,45.4191,2,29.586,15:24:44:137
-0.0331,0.0118,0.0313,44.4205,2,37.059,15:24:45:135
-0.0017,0.0418,-0.0828,44.8368,2,66.133,15:24:46:134
-0.0153,0.0219,-0.0207,44.4163,2,60.872,15:24:47:134
0.018,-0.0079,0.0301,45,2,61.618,15:24:48:137
-0.0077,0.0094,-0.0441,45.1582,2,65.053,15:24:49:135
-0.0034,-0.0402,0.0676,44.4173,2,68.226,15:24:50:134
0.0374,0.0063,-0.0084,45.5805,2,42.807,15:24:51:135
0.0067,0.0129,0.0303,44.4174,2,23.414,15:24:52:134
-0.0106,0.0288,0.0143,45.5772,2,52.104,15:24:53:134
-0.0125,-0.0556,-0.0452,44.4185,2,24.212,15:24:54:134
-0.0091,0.0141,-0.0342,44.1632,2,39.036,15:24:55:135
0.0351,-0.0091,0.0747,25.0979,2,32.841,15:24:56:135
0.01,0.0094,0.0437,35.0972,2,51.668,15:24:57:136
0.0383,-0.0134,0.0255,43,2,32.863,15:24:58:134
-0.0157,-0.012,0.0434,44.5791,2,61.904,15:24:59:134
-0.0122,-0.0311,-0.0589,44.4184,2,60.072,15:25:00:134
0.0146,-0.0369,0.0283,44.5682,2,61.746,15:25:01:134
0.0309,0.0839,-0.0389,45,2,60.547,15:25:02:134
-0.0071,-0.0102,0.0297,45.4239,2,59.965,15:25:03:135
-0.0216,-0.0199,0.0491,45,2,18.176,15:25:04:133
-0.0263,-0.0272,0.0414,44.419,2,20.172,15:25:05:135
-0.02,-0.0244,0.0198,44.8321,2,36.996,15:25:06:136
5.00E-04,0.0214,-0.0667,44.4209,2,23.151,15:25:07:135
-0.0151,-0.0721,-0.0021,44.8375,2,41.888,15:25:08:134
0.0046,0.0179,0.02,45.579,2,41.417,15:25:09:134
-0.0313,-9.00E-04,-0.0259,45,2,38.995,15:25:10:134
-0.0083,0.0046,0.0476,45,2,55.842,15:25:11:138
0.0194,-0.007,0.0209,45,2,54.787,15:25:12:135
0.0108,-0.0403,0.0341,45.5721,2,47.175,15:25:13:134
0.0275,-0.0051,-0.0288,45.422,2,47.018,15:25:14:134
-0.0549,0.0243,-0.0054,45.5851,2,40.464,15:25:15:134
0.008,0.0102,-0.0416,45.432,2,38.257,15:25:16:133
0.0126,0.0037,-0.0256,45.5823,2,27.884,15:25:17:134
0.0121,0.0185,0.0598,45.5997,2,34.164,15:25:18:135
3.00E-04,-0.0302,-0.0023,44.4186,2,44.326,15:25:19:134
0.0096,-0.0448,0.0044,44.5913,2,35.081,15:25:20:135
0.0032,0.0157,0.0359,45.5806,2,37.787,15:25:21:135
7.00E-04,7.00E-04,0.0203,44.4242,2,37.345,15:25:22:135
-0.0081,0.0082,0.1278,44.8378,2,35.342,15:25:23:134
-0.005,0.0236,-0.0247,44.5897,2,36.368,15:25:24:135
-0.0203,0.0516,0.0614,44.4174,2,35.594,15:25:25:135
-0.0177,0.0095,-0.0533,44.418,2,38.399,15:25:26:135
0.0364,0.0043,-0.0638,44.4325,2,33.18,15:25:27:133
0.0182,0.0058,-0.0339,44.5789,2,35.793,15:25:28:135
-0.0076,0.0107,0.0079,44.5723,2,33.989,15:25:29:137
-0.0196,-0.0318,-0.0421,44.5678,2,31.804,15:25:30:134
0.0082,-0.0229,-0.0063,44.8448,2,37.494,15:25:31:134
0.0098,0.0053,-0.0764,45.1635,2,36.446,15:25:32:134
-0.0027,-0.0374,0.0081,45.1674,2,30.068,15:25:33:134
-0.0162,-0.0043,0.0821,44.5826,2,43.691,15:25:34:134
0.0024,-0.0108,-0.0598,45,2,29.567,15:25:35:136
0.0264,0.0073,-0.0139,45.1594,2,38.559,15:25:36:134
-0.0034,-0.0245,-0.008,44,2,28.684,15:25:37:136
0.009,0.0566,0.003,44.5806,2,31.475,15:25:38:138
0.0336,0.003,-0.0138,45,2,31.712,15:25:39:136
0.0187,0.0053,0.0175,44.4176,2,33.814,15:25:40:135
1.00E-04,-0.0425,-0.0169,44.4211,2,31.576,15:25:41:135
0.032,-0.0098,-0.0108,45.5881,2,37.696,15:25:42:134
0.0041,-0.0059,0.0386,45.1576,2,38.155,15:25:43:134
0.0388,-0.0305,0.047,44.5972,2,44.457,15:25:44:134
-0.0051,0.0044,0.0284,44.5817,2,27.289,15:25:45:134
0.0096,0.0047,0.0131,44.8402,2,53.136,15:25:46:134
0.0018,-6.00E-04,0.0515,44.4243,2,51.859,15:25:47:135
0.0126,0.0077,-0.0052,44.8652,2,48.839,15:25:48:134
0.0145,-0.0048,-0.0686,44.4303,2,37.204,15:25:49:134
-0.032,-0.0092,-0.0218,45.1377,2,59.602,15:25:50:134
0.0047,0.0275,-0.0322,44.5803,2,27.139,15:25:51:134
-0.0028,-0.0017,0.0209,44.427,2,16.811,15:25:52:134
-0.003,-0.0103,-0.0932,45.1339,2,26.628,15:25:53:135
0.003,0.0317,-0.037,45,2,30.286,15:25:54:133
-0.0135,0.0144,-0.0087,44.8439,2,34.164,15:25:55:134
6.00E-04,-0.0258,0.0048,44.853,2,32.401,15:25:56:134
-0.007,-0.004,0.0264,44.4297,2,37.208,15:25:57:134
0.0351,-0.0028,-0.0099,45.5718,2,36.131,15:25:58:134
0.0075,-0.0187,-0.0628,45.1554,2,29.961,15:25:59:134
-0.0189,-0.021,-0.0458,44.8621,2,33.25,15:26:00:133
0.0169,0.0176,-0.0086,44.8374,2,32.855,15:26:01:135
0.0027,-0.0107,0.0446,44,2,35.619,15:26:02:134
0.0227,-0.0382,0.0032,45.1559,2,34.454,15:26:03:134
0.03,0.0214,0.0355,45.5776,2,34.919,15:26:04:135
0.0069,-0.019,-0.0528,45.1487,2,36.335,15:26:05:134
0.0238,-0.0264,0.0232,44.8407,2,35.72,15:26:06:136
-0.0125,-0.0206,-0.0441,45.4041,2,35.181,15:26:07:134
0.0195,-0.0063,-0.0042,45.5812,2,35.246,15:26:08:135
0.0269,-0.0218,0.0156,45.5885,2,32.068,15:26:09:134
-0.0028,-0.02,-0.0546,44.8404,2,33.254,15:26:10:134
-0.011,0.0601,0.0208,45.4199,2,33.958,15:26:11:134
0.0292,0.0012,0.061,44.8646,2,39.244,15:26:12:134
0.0192,0.0515,-0.0385,45.4249,2,50.513,15:26:13:135
0.0211,0.0238,0.0402,45.5722,2,16.837,15:26:14:134
0.0291,-0.0142,0.0098,45.1538,2,55.442,15:26:15:134
-0.0135,0.0397,-0.0202,44.8538,2,57.373,15:26:16:134
-0.0071,-0.0329,-0.0292,45.136,2,57.934,15:26:17:135
-0.0196,0.0139,0.0141,46,2,15.898,15:26:18:135
-0.0132,-8.00E-04,-0.0154,45.4281,2,54.112,15:26:19:134
-0.0231,-0.023,-0.0371,45.4251,2,56.336,15:26:20:135
-0.0166,-0.0035,0.0507,45.4265,2,50.667,15:26:21:133
0.0041,0.0073,0.0544,45.5752,2,51.708,15:26:22:134
-0.0171,-0.0071,0.0112,45.4196,2,58.031,15:26:23:134
0.0222,0.0108,-0.0868,45.5722,2,61.408,15:26:24:134
-0.0111,0.0123,-0.0177,45.5771,2,52.533,15:26:25:134
-0.006,-0.0315,0.0573,45.5767,2,44.948,15:26:26:134
-0.0345,0.0316,0.0077,45.4279,2,55.55,15:26:27:134
-0.0215,0.0254,-0.0349,45.4187,2,63.867,15:26:28:135
-0.0121,-0.0253,0.0131,45.5765,2,72.025,15:26:29:134
-0.0261,-0.005,0.0073,45.4244,2,67.447,15:26:30:134
0.0351,-0.0271,-0.0163,45.4239,2,68.138,15:26:31:134
0.0042,0.0055,-0.003,45.579,2,66.892,15:26:32:134
-0.0419,-8.00E-04,-0.0426,45.5747,2,66.848,15:26:33:135
-8.00E-04,9.00E-04,0.0481,45.5736,2,63.209,15:26:34:134
-0.0402,-0.0588,-3.00E-04,45,2,59.9,15:26:35:135
-0.0407,-0.0106,-0.0532,45.4244,2,63.092,15:26:36:134
0.0115,0.0037,-0.0234,45.5681,2,62.678,15:26:37:134
-0.0323,0.0185,-0.0227,45.4191,2,66.524,15:26:38:134
-0.0296,-0.0215,-0.0118,45.5731,2,67,15:26:39:135
0.0242,-0.0118,0.0367,45.5739,2,62.935,15:26:40:135
-0.0093,-0.0184,-0.0102,45.4255,2,62.604,15:26:41:134
0.0449,0.0028,0.025,45.4325,2,64.38,15:26:42:134
-0.0181,0.0032,-0.0376,46.5822,2,63.126,15:26:43:137
0.0091,-0.0171,0.0452,45.4253,2,62.231,15:26:44:135
-0.0075,-0.0012,0.0326,45.5903,2,63.721,15:26:45:134
0.0327,0.0165,-0.034,45.4234,2,67.385,15:26:46:134
0.0194,0.0245,-0.006,46,2,63.697,15:26:47:134
-0.0045,0.0141,0.0062,46.4244,2,69.36,15:26:48:135
-0.0227,0.0296,-0.0289,45.8302,2,69.364,15:26:49:134
0.0129,0.0049,0.0068,46.4199,2,69.329,15:26:50:135
0.0108,6.00E-04,0.0362,46.4194,2,62.862,15:26:51:134
0.0064,0.0127,0.0468,46,2,67.648,15:26:52:133
0.015,0.0039,-0.0029,46.4162,2,68.01,15:26:53:135
-0.0153,-0.028,0.0249,46.4197,2,69.605,15:26:54:134
-0.0049,0.0577,-0.0248,47,2,67.684,15:26:55:134
0.0372,-0.0328,-0.0106,46.4197,2,66.164,15:26:56:135
-0.0109,-0.0314,-0.0656,46.5759,2,70.117,15:26:57:134
-0.0121,-0.0136,-0.004,46.5809,2,69.959,15:26:58:135
0.0038,0.0219,0.0512,46.4192,2,70.647,15:26:59:135
0.0029,0.0029,-0.0231,46.419,2,58.622,15:27:00:134
0.022,0.0047,-0.01,47.5832,2,69.404,15:27:01:135
-0.023,0.0108,-0.0059,47,2,67.856,15:27:02:134
-0.0067,-0.0023,0.0392,46.4209,2,64.483,15:27:03:134
0.0136,0.0021,-0.0305,47,2,58.747,15:27:04:134
0.0072,0.0135,0.0267,46.4273,2,63.315,15:27:05:135
-0.0254,-0.0255,-0.0018,47,2,62.565,15:27:06:134
0.0045,0.0056,-0.0339,46.427,2,64.245,15:27:07:133
0.0119,0.0017,0.0168,46,2,64.575,15:27:08:135
0.008,-0.0161,0.0232,46.5771,2,64.619,15:27:09:134
0.0187,0.0093,-0.0264,46.4286,2,63.47,15:27:10:134
-0.0035,-6.00E-04,0.0529,45.8538,2,64.528,15:27:11:134
-0.024,0.0029,0.0513,46.4245,2,65.521,15:27:12:134
-0.0233,-0.0095,0.0093,46.5772,2,66.587,15:27:13:133
0.0214,-0.0165,-0.0343,46,2,68.262,15:27:14:134
0.0115,-0.0041,0.053,46.4193,2,66.826,15:27:15:134
0.0103,0.0237,-0.0268,46.4303,2,67.899,15:27:16:134
0.003,-0.0026,0.0036,46.4223,2,68.741,15:27:17:134
-0.0432,0.0343,-0.009,46.5729,2,59.445,15:27:18:134
0.0196,-0.0021,0.0828,46.4236,2,72.133,15:27:19:134
0.0208,-0.0194,0.0048,46.5766,2,67.095,15:27:20:134
-0.043,0.0175,-0.1027,46.4259,2,66.578,15:27:21:134
-0.0253,0.0096,0.0251,46.4198,2,70.506,15:27:22:134
0.0237,-2.00E-04,-0.0067,46.4287,2,68.503,15:27:23:134
0.0122,0.0189,-0.0357,47,2,71.166,15:27:24:134
0.0174,-0.0477,-0.0549,47,2,53.41,15:27:25:135
-0.03,0.0404,0.0039,46.1747,2,71.068,15:27:26:135
-0.0135,-0.0129,-0.0091,46.4268,2,68.96,15:27:27:134
-0.0117,0.0218,0.0371,46.4187,2,69.636,15:27:28:135
-0.0228,-0.0035,0.008,46.5803,2,62.395,15:27:29:135
0.0208,-0.0079,-0.0975,46.4206,2,64.944,15:27:30:134
0.0302,0.0121,-0.023,46.5813,2,66.992,15:27:31:134
-0.0033,0.0012,-0.0417,46.4273,2,70.204,15:27:32:134
0.0075,0.0334,0.0033,46.8177,2,65.851,15:27:33:135
-0.0063,-0.009,0.0216,47,2,69.08,15:27:34:135
-0.0178,-0.0107,-9.00E-04,46.4187,2,65.877,15:27:35:134
0.0059,-0.0672,-0.1274,46.4181,2,70.309,15:27:36:135
0.0098,0.0493,0.0301,45.8535,2,63.896,15:27:37:134
0.0038,-0.0354,-0.0042,46.8382,2,73.024,15:27:38:135
-0.0306,0.0603,-0.0141,47,2,67.854,15:27:39:135
-0.0186,0.0146,-0.0027,46.3996,2,71.237,15:27:40:137
0.013,-0.0358,-0.0027,47,2,67.959,15:27:41:134
-0.0049,0.0081,-0.0075,46.8668,2,74.262,15:27:42:133
-0.0244,0.0085,0.0037,47,2,69.494,15:27:43:135
-0.0031,-0.0469,0.0117,47,2,70.564,15:27:44:135
-0.0195,0.0237,-0.0192,47.1628,2,51.026,15:27:45:136
-0.0204,-0.0193,0.0227,46,2,67.289,15:27:46:134
0.0255,0.0101,-0.0541,46.8238,2,64.742,15:27:47:135
-0.024,0.0304,0.0011,47.4194,2,60.959,15:27:48:134
-0.0238,-0.0035,0.0928,47.5826,2,58.153,15:27:49:136
0.0139,0.0232,-0.0384,46.4173,2,63.746,15:27:50:136
-0.0263,0.0136,0.0364,47,2,65.32,15:27:51:135
-0.0034,-0.0097,-0.0685,47.5776,2,60.923,15:27:52:134
0.0013,0.0193,0.0343,46.8409,2,66.523,15:27:53:134
-0.0091,-0.0095,0.0077,47.5817,2,62.613,15:27:54:134
0.0038,0.0051,-0.0948,47.5831,2,51.137,15:27:55:136
0.0178,-0.0065,0.0054,46.4203,2,56.606,15:27:56:135
-0.0138,-0.0011,-0.0097,47.5802,2,65.04,15:27:57:135
-0.0224,0.0076,0.0081,47.5875,2,64.394,15:27:58:134
0.0161,0.0092,-0.0053,47.419,2,59.978,15:27:59:134
-0.027,-0.0229,0.0176,46.8265,2,65.607,15:28:00:135
-0.0328,-0.02,0.0146,47.4103,2,64.38,15:28:01:134
-0.0095,0.0114,-0.0623,47.422,2,64.018,15:28:02:134
-0.0194,-0.0279,0.0504,48,2,67.647,15:28:03:135
0.0059,-0.008,-0.0459,47.1606,2,69.394,15:28:04:136
0.0349,-0.0365,0.0455,46.838,2,70.96,15:28:05:135
0.0063,-0.0115,-0.0174,46.5806,2,67.767,15:28:06:134
-0.0089,0.0297,-0.0845,46.4183,2,64.304,15:28:07:134
-0.0074,-0.038,0.0309,47,2,66.652,15:28:08:135
0.0138,0.014,-0.0263,46,2,67.228,15:28:09:136
-0.0096,0.0164,-0.0157,48,2,70.465,15:28:10:134
-0.034,0.0158,0.0324,47.16,2,65.432,15:28:11:136
0.0257,0.0054,0.0504,46.8628,2,69.012,15:28:12:133
0.028,0.0013,0.0087,47.5815,2,68.295,15:28:13:134
-0.049,8.00E-04,0.0895,46.8662,2,69.667,15:28:14:135
-0.017,0.0199,0.0656,47.5915,2,62.257,15:28:15:136
0.0123,0.0048,-0.0226,47.1668,2,68.7,15:28:16:135
-0.0103,-0.0282,-0.006,47.5878,2,67.053,15:28:17:134
6.00E-04,-0.0227,0.0295,47.1491,2,64.201,15:28:18:135
0.022,-0.0275,-0.0298,47.421,2,63.935,15:28:19:134
0.0595,0.0016,-0.0101,46.8396,2,64.123,15:28:20:135
-0.0052,0.0095,-0.021,47.4187,2,62.8,15:28:21:134
0.0047,-4.00E-04,0.0109,47.5826,2,63.767,15:28:22:133
0.0434,5.00E-04,0.0083,47.5793,2,61.393,15:28:23:135
-0.0221,0.0056,-0.0413,47.4158,2,63.179,15:28:24:135
0.0055,-0.0118,-0.0051,47.585,2,61.93,15:28:25:134
0.001,0.0202,-0.0456,46.5742,2,63.811,15:28:26:136
0.0446,0.0529,-0.0465,45.5679,2,65.288,15:28:27:133
-0.0533,0.0152,0.018,45.8675,2,66.98,15:28:28:134
-0.2261,-0.0995,-0.0221,52.5662,2,65.306,15:28:29:133
-0.0103,-0.0138,0.009,51.8602,2,67.302,15:28:30:134
0.0044,0.0267,-0.0504,52.8387,2,68.414,15:28:31:134
-0.0149,-0.0114,0.0054,53.1321,2,71.996,15:28:32:134
-0.0049,0.1268,-0.0105,52,2,65.669,15:28:33:133
0.0034,-0.0334,-0.0379,52.4321,2,65.329,15:28:34:133
0.0027,0.0349,0.0434,53,2,15.446,15:28:35:134
-0.0105,-0.0137,-0.0353,52.4209,2,36.966,15:28:36:134
0.0148,0.0051,-0.002,53,2,19.716,15:28:37:135
-0.0047,0.0186,0.0157,52.4254,2,15.391,15:28:38:136
-0.0082,0.0054,0.085,53.4202,2,15.449,15:28:39:134
-0.012,0.0248,-0.0121,52.4326,2,20.376,15:28:40:134
0.0054,0.0034,0.0186,52.4332,2,15.615,15:28:41:134
-0.0146,0.0286,-0.0095,53.1312,2,15.507,15:28:42:139
0.0175,-0.0088,0.0233,53,2,15.547,15:28:43:134
-0.0014,-0.0226,0.0061,52.8364,2,15.424,15:28:44:134
0.0424,0.0097,0.0341,53.4173,2,15.416,15:28:45:135
0.0053,0.0134,-0.003,53.5832,2,15.371,15:28:46:134
0.0225,-0.0058,-0.0672,52.4194,2,15.509,15:28:47:134
-0.0471,0.0098,-0.043,53,2,15.453,15:28:48:134
0.0212,0.0314,-0.0244,52.8382,2,15.413,15:28:49:135
-0.0072,-0.0074,-0.012,53,2,15.5,15:28:50:134
0.0016,-0.0094,-0.0091,53.1644,2,15.506,15:28:51:137
0.002,-0.0186,0.0247,53.4203,2,15.556,15:28:52:135
0.0148,-0.0169,0.0419,53.5863,2,15.405,15:28:53:135
-0.0145,0.012,0.0701,53.4114,2,15.488,15:28:54:134
0.0071,-0.0259,-0.0206,53.5807,2,15.376,15:28:55:134
0.0197,-0.0271,0.0096,53.4239,2,15.427,15:28:56:136
0.0298,0.0202,0.0591,54,2,15.429,15:28:57:134
0.0013,-0.0096,-0.0351,53.1595,2,15.439,15:28:58:136
0.0096,-0.0552,0.0179,53.4156,2,15.401,15:28:59:135
0.0433,-0.0506,0.0714,53.5801,2,15.423,15:29:00:135
0.0054,-0.0192,0.0106,53.419,2,15.591,15:29:01:134
0.0293,-0.0024,-0.0371,53.5811,2,15.451,15:29:02:134
0.0182,0.0098,0.0069,53.1606,2,15.473,15:29:03:134
0.012,-0.0193,-0.0676,52,2,15.424,15:29:04:135
0.0088,-0.0442,0.0154,52.8528,2,15.385,15:29:05:134
-0.0281,-0.0069,0.0204,53.5804,2,15.883,15:29:06:134
-0.0062,-0.0153,-0.0054,53.1785,2,19.214,15:29:07:135
-0.0363,0.0274,-0.0677,53.4191,2,15.391,15:29:08:135
0.009,-0.0222,0.1029,53.5821,2,15.455,15:29:09:135
0.0323,0.0072,-0.039,52.8455,2,15.28,15:29:10:135
0.0177,0.0159,-0.0512,53.656,2,15.529,15:29:11:135
-0.0059,-0.0374,-0.0089,52.8573,2,40.102,15:29:12:134
0.0312,-0.0316,-0.0522,54,2,36.23,15:29:13:135
-0.0215,-0.0146,-0.0043,52.5818,2,17.866,15:29:14:134
0.0036,0.015,-0.0126,53.1561,2,65.301,15:29:15:134
-0.0055,-0.0219,-0.0244,53,2,67.862,15:29:16:134
0.0056,-0.0098,0.0051,52.4279,2,57.237,15:29:17:134
-0.0237,0.0251,0.0015,52.5793,2,55.764,15:29:18:134
0.0155,0.0361,-0.0806,52.5845,2,62.693,15:29:19:142
0.0224,-0.0227,-0.0014,52.582,2,67.561,15:29:20:135
-0.0121,0.0678,-0.0126,52.4203,2,54.515,15:29:21:135
0.0302,-0.0211,0.0271,53.3967,2,60.582,15:29:22:135
-0.0274,0.0164,0.0039,52.5782,2,55.452,15:29:23:134
-0.0052,0.0483,3.00E-04,52.4198,2,60.694,15:29:24:136
0.04,0.0073,0.0062,52.4212,2,64.785,15:29:25:135
-0.0074,0.0232,-0.0012,52.5804,2,62.227,15:29:26:136
0.0246,-4.00E-04,-0.033,52.5795,2,58.061,15:29:27:134
0.0354,-0.0189,-0.0062,52.8513,2,60.37,15:29:28:134
0.0187,-0.01,-0.0062,52.5848,2,57.206,15:29:29:134
-0.0295,0.0144,-0.0243,52.4188,2,60.571,15:29:30:135
0.0086,-0.0167,0.0235,53.1586,2,65.901,15:29:31:134
0.001,0.0046,-0.0025,53,2,65.671,15:29:32:136
0.0067,0.0073,0.0108,53.1564,2,64.668,15:29:33:134
0.0039,0.0711,0.0688,53,2,65.062,15:29:34:134
0.0234,-0.0294,-0.0165,53.1937,2,62.64,15:29:35:135
-0.0105,-0.0149,-0.0239,52.8365,2,66.275,15:29:36:134
-0.0118,0.0443,-0.0015,54,2,61.872,15:29:37:136
-0.0202,0.0011,-0.0593,53.5801,2,51.505,15:29:38:134
0.0192,-0.0062,0.046,52.8387,2,60.511,15:29:39:135
-0.0119,-0.0235,0.0144,53.4177,2,53.915,15:29:40:135
0.0139,0.0019,-0.019,53.1614,2,52.546,15:29:41:135
-0.0161,-0.0194,-0.0179,51.5665,2,65.498,15:29:42:134
-0.0158,-0.035,-0.0113,52.8377,2,63.288,15:29:43:134
0.0075,-0.0068,0.0022,53.4239,2,58.882,15:29:44:134
-0.0218,-0.0047,-0.0333,53.1615,2,60.518,15:29:45:134
-0.0031,0.0162,0.0712,54,2,59.685,15:29:46:135
3.00E-04,0.0078,0.0532,53.5791,2,57.018,15:29:47:134
0.0203,0.0089,-0.0255,52.5971,2,60.846,15:29:48:136
0.0012,-0.0121,-0.0295,53.4191,2,58.531,15:29:49:134
0.0363,0.0213,0.0123,53.5797,2,62.068,15:29:50:137
0.0407,-0.0262,-0.0143,53.4015,2,59.795,15:29:51:135
0.0027,0.0068,-0.0329,53.4085,2,51.106,15:29:52:134
-0.0461,0.0151,0.0479,52.4189,2,67.764,15:29:53:136
0.0282,0.023,0.0448,54.5792,2,55.657,15:29:54:134
-0.049,0.0348,0.031,53.4213,2,61.057,15:29:55:135
0.046,0.0196,-0.0264,53.4084,2,57.621,15:29:56:134
-6.00E-04,0.0289,0.0095,53.5829,2,60.994,15:29:57:135
0.0234,0.0024,0.0025,53.5866,2,55.639,15:29:58:135
-0.0145,-0.0286,0.0011,52.4264,2,63.837,15:29:59:134
-0.0199,0.0032,0.0436,53.5776,2,65.468,15:30:00:136
-0.0147,-0.0466,-0.0312,54.3994,2,64.776,15:30:01:134
-6.00E-04,0.0106,0.04,54.157,2,63.221,15:30:02:135
-0.0603,0.0348,-0.0029,54.1365,2,67.161,15:30:03:134
-0.0191,0.0145,0.0018,52.3985,2,60.767,15:30:04:134
0.0285,0.0161,-0.0446,54.1689,2,63.588,15:30:05:134
0.0166,0.0186,0.023,52.8414,2,58.929,15:30:06:135
0.0071,-0.0186,0.0448,54.5709,2,52.246,15:30:07:133
-0.0048,0.0032,0.0204,53.8433,2,57.33,15:30:08:137
-0.0103,-0.0334,0.0147,54.5871,2,53.46,15:30:09:137
-0.0154,0.0146,0.0536,54.5818,2,56.945,15:30:10:135
0.0038,0.0171,0.0078,54.5848,2,52.178,15:30:11:135
-0.0103,-0.0319,0.0581,53.8594,2,45.116,15:30:12:134
-0.0276,-0.0345,-0.0556,54.4276,2,32.181,15:30:13:134
0.0199,-0.0016,0.0325,55.166,2,55.458,15:30:14:134
-0.0168,-0.0169,-0.0207,54.5719,2,55.902,15:30:15:134
0.0075,0.0281,-0.0421,54.43,2,62.281,15:30:16:134
0.0402,-0.054,0.0451,55,2,62.75,15:30:17:134
-0.0252,0.0188,0.0489,55.137,2,60.231,15:30:18:134
-0.008,0.005,-0.036,54,2,61.757,15:30:19:134
-0.0072,0.0167,0.0633,54.5813,2,59.757,15:30:20:135
-0.005,-0.0196,0.0466,54.5751,2,58.386,15:30:21:134
-0.0276,-0.02,0.0597,54.4228,2,44.975,15:30:22:135
-0.0227,-0.0194,-0.0515,54.1602,2,52.748,15:30:23:136
0.01,-0.022,-0.0451,54,2,56.62,15:30:24:135
0.0619,-0.012,0.0121,53.4196,2,63.044,15:30:25:135
0.032,-0.0378,-0.0846,54,2,64.191,15:30:26:134
0.0085,0.0222,0.0056,53,2,68.476,15:30:27:135
0.0268,-0.0425,0.0575,54.5876,2,48.841,15:30:28:135
-0.019,-0.0069,0.0173,52.8417,2,57.832,15:30:29:134
0.001,0.0325,-0.0534,54.4026,2,65.118,15:30:30:134
-0.0026,-0.0037,0.0183,53.4202,2,69.805,15:30:31:136
0.0393,0.0049,-0.0069,53.58,2,65.951,15:30:32:134
-0.0069,-0.0338,0.0692,53.5806,2,59.555,15:30:33:134
0.0173,0.0182,0.0485,54.5813,2,63.762,15:30:34:136
0.018,-0.0216,0.0107,53.4207,2,63.407,15:30:35:135
0.0192,-0.024,0.021,53.8436,2,58.933,15:30:36:134
0.0156,0.0085,0.0389,54.4218,2,65.62,15:30:37:136
0.0097,0.009,0.0529,54.1613,2,60.789,15:30:38:135
0.0314,-0.0091,-0.0093,52.8417,2,58.364,15:30:39:136
0.0017,0.0582,-0.0272,54.5654,2,62.308,15:30:40:134
-0.0138,0.0103,2.00E-04,53.1641,2,55.185,15:30:41:134
-0.0392,-0.025,0.0338,52.8465,2,69.733,15:30:42:133
-0.034,0.0026,0.002,53.5755,2,64.864,15:30:43:135
0.0098,-0.0141,-0.0689,53.4201,2,60.607,15:30:44:135
0.002,-0.0028,-0.0386,52.157,2,63.487,15:30:45:135
-0.0062,-0.0075,-0.0064,53.1524,2,63.505,15:30:46:134
-4.00E-04,0.0035,-0.0108,52.835,2,58.124,15:30:47:135
-0.0397,-0.0074,-0.0173,53.5861,2,61.693,15:30:48:135
-0.0262,-0.0015,-0.0851,53.8396,2,61.311,15:30:49:135
-0.0076,-0.0268,0.0185,53.5807,2,56.515,15:30:50:135
0.0229,0.0039,-0.0063,53,2,59.526,15:30:51:134
-0.0176,-0.022,-0.0085,53.1379,2,60.658,15:30:52:134
-0.0103,-0.0048,-0.0427,53.5816,2,59.453,15:30:53:135
0.0234,0.0215,-0.0535,53.4144,2,61.006,15:30:54:134
3.00E-04,-0.0084,-0.0097,53.8476,2,62.33,15:30:55:135
-0.0051,-0.0074,-0.0463,54,2,63.707,15:30:56:135
-0.0279,0.025,0.053,53.5824,2,60.541,15:30:57:134
0.0134,-0.0095,-0.0271,52.4192,2,61.863,15:30:58:135
-0.018,-0.0143,-0.029,53.4199,2,62.605,15:30:59:134
0.0061,0.025,-0.0452,53,2,59.15,15:31:00:135
-0.0033,-0.0244,0.0332,53.5804,2,65.227,15:31:01:135
8.00E-04,0.0233,-0.0384,53.5801,2,67.374,15:31:02:135
-0.0245,0.0082,0.0343,51.8419,2,55.097,15:31:03:134
-0.0283,0.0199,-0.0564,52.5744,2,63.884,15:31:04:136
0.0083,-0.0269,0.0509,52.4178,2,53.093,15:31:05:135
-0.048,0.0115,-0.022,52.8414,2,62.354,15:31:06:135
0.0087,-0.0081,0.0503,53.1727,2,60.629,15:31:07:135
-0.0025,-0.0066,0.0235,52.5806,2,58.701,15:31:08:134
-0.0083,0.0169,-0.0152,53,2,59.238,15:31:09:135
0.0279,0.008,-0.0279,52.3224,2,63.96,15:31:10:134
-0.0094,-0.0065,0.0052,53.4202,2,62.164,15:31:11:134
-0.0067,0.0233,0.0031,53.4195,2,63.404,15:31:12:135
0.0103,-0.0104,-0.0354,53.5754,2,65.544,15:31:13:134
-0.0312,0.0138,-0.0839,52.5804,2,63.361,15:31:14:135
0.003,-0.0307,-0.0147,53.42,2,59.966,15:31:15:135
-0.017,0.0117,0.0164,53.1581,2,57.944,15:31:16:134
-0.02,0.0093,0.0071,53.4175,2,61.578,15:31:17:135
0.0094,-0.016,0.0562,52,2,61.848,15:31:18:134
-8.00E-04,-0.024,-0.0392,53.1613,2,59.712,15:31:19:135
-0.0023,-0.0224,6.00E-04,51.4122,2,54.574,15:31:20:134
-0.0068,-0.0144,-0.028,51.4092,2,60.334,15:31:21:137
0.007,0.0155,-3.00E-04,52.5664,2,58.641,15:31:22:134
-0.0144,-0.0075,-0.0099,52.163,2,49.373,15:31:23:135
0.0013,0.0269,0.0304,52,2,61.715,15:31:24:134
0.0077,0.0399,-0.0278,52.4162,2,68.049,15:31:25:134
0.0206,-0.0021,0.0144,52.1816,2,54.499,15:31:26:136
0.0073,0.0232,-0.0069,53.4185,2,67.076,15:31:27:134
-0.0056,0.0223,-0.0256,53.4148,2,40.49,15:31:28:134
0.0019,-0.049,-0.0304,53,2,54.932,15:31:29:135
0.002,-0.0029,-0.055,53.1574,2,15.323,15:31:30:135
0.0162,-0.024,0.0324,53.4207,2,43.007,15:31:31:135
0.0057,0.0252,-0.0201,51.8592,2,47.894,15:31:32:134
0.0151,-0.0168,0.0468,53.4254,2,40.642,15:31:33:133
-0.0026,-0.041,-0.0429,53,2,17.174,15:31:34:135
0.0047,-0.0168,-0.0071,53.8395,2,48.373,15:31:35:134
-0.0026,-0.0141,0.0316,53.4215,2,29.3,15:31:36:135
-0.0235,0.0136,0.0408,54,2,35.89,15:31:37:135
0.0094,-0.0261,0.0127,52.8285,2,28.194,15:31:38:134
0.0022,-0.019,0.0017,53.4191,2,20.512,15:31:39:134
0.0251,0.034,-0.0138,53.5794,2,16.659,15:31:40:134
-0.005,0.0281,0.0148,52.8429,2,15.296,15:31:41:135
-0.0195,0.0076,-0.0158,53.5739,2,15.724,15:31:42:135
0.0203,0.0281,0.022,53.4207,2,17.223,15:31:43:135
-0.0145,0.0051,-0.0805,53.161,2,16.269,15:31:44:134
0.0026,0.0075,0.004,53.4189,2,21.528,15:31:45:135
0.0154,0.0206,0.0511,54,2,15.389,15:31:46:134
-0.0102,0.0233,0.0094,53.8665,2,15.427,15:31:47:133
-0.0107,-0.0102,0.0383,53.4206,2,33.621,15:31:48:134
-0.0029,0.0099,-0.0415,53.419,2,15.422,15:31:49:136
9.00E-04,-0.0184,0.0873,53.1561,2,19.647,15:31:50:148
0.0112,-0.0214,0.0439,53,2,15.476,15:31:51:135
-7.00E-04,-0.0125,-0.0041,52.8536,2,16.411,15:31:52:134
0.0062,-0.0097,-0.0257,53.5783,2,16.158,15:31:53:133
0.0133,0.0085,-0.0373,53,2,18.344,15:31:54:135
-0.0111,0.0097,0.0135,52.8339,2,16.032,15:31:55:134
0.0054,0.009,-0.0324,52.5789,2,17.001,15:31:56:135
0.0329,-0.0242,0.0076,52.5791,2,15.734,15:31:57:134
0.0042,0.0286,0.0233,53.1622,2,15.43,15:31:58:135
-0.0017,-0.0285,0.0279,52.5787,2,15.444,15:31:59:134
-0.0133,0.0178,0.0265,52.4208,2,15.605,15:32:00:135
0.0075,-0.0201,0.0238,52.1696,2,37.963,15:32:01:136
-0.0132,6.00E-04,-0.0269,52.5792,2,15.577,15:32:02:134
-0.0138,-1.00E-04,-0.0033,52,2,15.415,15:32:03:135
-0.0177,-0.0291,0.005,52.1689,2,15.611,15:32:04:134
-0.0133,0.0069,0.0043,51.5786,2,15.315,15:32:05:135
0.0084,0.0514,0.0568,51.4194,2,18.597,15:32:06:134
0.029,-0.0107,-0.0304,51.8499,2,15.911,15:32:07:133
-0.0303,-0.0021,0.0515,52,2,16.974,15:32:08:134
-0.0194,-0.0229,-0.0058,51.8354,2,16.156,15:32:09:134
-0.0348,-0.062,-0.0091,50.842,2,24.649,15:32:10:135
-0.0051,-0.0248,-0.052,52,2,20.296,15:32:11:134
0.0132,0.017,0.0027,52.1315,2,17.04,15:32:12:134
0.0182,-0.0282,-0.0071,53,2,16.424,15:32:13:135
-0.0084,0.0264,-0.0246,51.4176,2,16.161,15:32:14:134
0.0151,-3.00E-04,-0.0414,52.2646,2,16.472,15:32:15:135
0.0028,0.0321,-0.0218,53.5881,2,15.469,15:32:16:135
0.0196,0.0139,-0.041,53.4265,2,15.454,15:32:17:134
-0.0136,0.0371,-0.0279,54.1619,2,15.443,15:32:18:135
0.0245,-0.0221,-0.0187,52.5869,2,15.32,15:32:19:134
-0.0368,-0.0045,-0.0558,50.4194,2,71.96,15:32:20:134
0.0232,0.0231,-0.0261,51.8398,2,15.469,15:32:21:134
-0.0065,0.0267,-0.0566,51.5742,2,15.466,15:32:22:134
-0.0113,-0.002,0.009,53,2,15.421,15:32:23:134
0.0103,-0.0544,0.0061,51.8424,2,16.578,15:32:24:135
0.0108,0.017,-0.0353,53.1585,2,15.624,15:32:25:134
0.0153,-0.0092,0.0024,52.8211,2,15.485,15:32:26:137
0.0328,-0.0039,-0.0048,52.5777,2,15.282,15:32:27:136
-0.0172,0.0187,0.0565,52.5805,2,30.355,15:32:28:135
-0.0033,0.0132,0.0916,52,2,15.247,15:32:29:135
0.0123,0.009,-0.0139,51.4223,2,15.409,15:32:30:134
-0.0131,0.0117,-0.0111,52.5805,2,15.341,15:32:31:135
-0.0375,-0.007,0.0291,52,2,15.624,15:32:32:134
-0.0239,0.0519,-0.0234,51.8409,2,26.627,15:32:33:136
-3.00E-04,-0.0098,0.011,52.4212,2,38.724,15:32:34:135
-0.0049,0.0054,0.0369,52.5798,2,15.39,15:32:35:135
0.0298,0.0232,0.0093,51.8409,2,16.031,15:32:36:135
-0.006,-0.0195,0.0081,52.1584,2,15.377,15:32:37:135
0.0186,-0.0051,-0.0226,51,2,15.37,15:32:38:134
-0.0062,-0.0337,0.0192,51.4161,2,15.62,15:32:39:135
0.0303,-0.0129,0.0411,52.1612,2,15.415,15:32:40:135
0.0128,-0.0103,-0.0789,52.5811,2,15.418,15:32:41:134
-0.0042,0.0427,0.0098,52.5781,2,15.378,15:32:42:134
0.0293,0.0087,0.0218,51.8569,2,15.393,15:32:43:134
-0.0257,-0.0392,-0.0321,52.5741,2,15.499,15:32:44:134
0.0364,0.0082,-0.0364,51,2,15.371,15:32:45:134
0.028,0.0101,0.0155,52.1509,2,15.503,15:32:46:134
0.0051,-0.0322,0.054,52,2,16.094,15:32:47:135
-0.0031,-0.0078,-0.0187,52.15,2,17.444,15:32:48:134
0.0164,0.0378,0.0434,51.5702,2,16.191,15:32:49:135
0.0153,0.0141,0.0359,51.4205,2,17.306,15:32:50:134
1.00E-04,0.0194,0.0484,52.1393,2,15.772,15:32:51:133
0.0193,-0.0094,0.0148,51.8415,2,15.438,15:32:52:134
-0.0194,0.007,-0.0313,52.1366,2,15.342,15:32:53:134
0.0153,-0.0233,0.0321,52.5709,2,15.389,15:32:54:134
-0.013,0.0253,0.0474,52.4275,2,15.375,15:32:55:134
0.007,0.0038,0.0012,51.8429,2,15.384,15:32:56:134
-0.0098,-0.0213,0.0711,52.4251,2,15.373,15:32:57:134
-0.0115,0.0113,0.0148,52.5745,2,15.442,15:32:58:133
0.0099,-0.0069,0.0151,51.8464,2,15.443,15:32:59:134
-0.0048,-0.03,-0.0056,51.8206,2,15.538,15:33:00:134
-0.0146,0.0104,0.0708,52.43,2,15.512,15:33:01:133
0.0125,-0.0087,0.0515,52,2,16.544,15:33:02:134
0.0338,-0.0072,-0.0241,52,2,16.816,15:33:03:134
-0.027,-0.0054,-0.002,51.4315,2,15.664,15:33:04:134
-0.002,-0.0011,0.0033,51.8416,2,21.773,15:33:05:134
0.0171,0.0043,0.0089,51.5734,2,15.309,15:33:06:133
-0.001,0.0176,0.0673,51,2,15.375,15:33:07:134
0.0057,-0.0175,-0.0488,51.5801,2,15.416,15:33:08:134
0.006,-0.0194,-0.0315,51.1321,2,15.32,15:33:09:134
-0.0125,-0.0242,-0.0321,51.4211,2,15.297,15:33:10:135
-0.0135,-0.0187,-0.0874,51.58,2,18.672,15:33:11:134
-0.0043,-0.0466,-0.0061,51.139,2,15.399,15:33:12:133
0.0157,-0.0019,0.0393,50.5867,2,15.618,15:33:13:135
0.0124,-0.0051,0.0168,50.4276,2,15.368,15:33:14:135
-0.0388,-0.0246,0.0328,50.5795,2,15.903,15:33:15:135
-0.0021,-0.0038,0.0107,50,2,16.053,15:33:16:134
0.0122,0.0127,-0.0483,50.4172,2,15.945,15:33:17:134
0.0079,-0.0171,0.0459,49.5789,2,18.244,15:33:18:136
0.0037,0.0134,0.0189,48.8556,2,16.625,15:33:19:133
0.013,0.0029,0.0303,49.8313,2,16.471,15:33:20:134
0.0148,-0.0312,0.0307,50,2,16.593,15:33:21:134
-0.0135,0.0056,0.0285,49.1551,2,15.857,15:33:22:133
-0.0454,-0.0265,-0.0271,49.4188,2,15.373,15:33:23:139
-0.0041,-0.029,0.0032,49.573,2,15.296,15:33:24:136
0.0052,0.0265,-0.003,48.2563,2,15.362,15:33:25:134
-0.01,-0.0348,0.0217,50.4181,2,15.486,15:33:26:136
-0.0029,-0.0012,0.0072,50.5716,2,15.571,15:33:27:135
7.00E-04,0.0027,0.0193,49.158,2,15.46,15:33:28:134
-0.0127,-0.0049,0.0207,50.4072,2,15.382,15:33:29:135
-0.0095,-0.0449,-0.0228,51.1528,2,15.617,15:33:30:134
-0.0237,-0.0332,0.0054,50.157,2,15.376,15:33:31:135
0.0149,0.0052,0.0075,51,2,15.393,15:33:32:134
0.0263,0.0293,-0.0332,50.4296,2,15.803,15:33:33:134
0.0047,-0.0091,0.0479,48.8453,2,15.273,15:33:34:134
0.0135,-0.0135,-0.0283,47.5791,2,15.879,15:33:35:134
0.0098,-0.0308,0.0234,47.4304,2,15.281,15:33:36:136
0.0077,0.0022,-4.00E-04,47.8615,2,15.315,15:33:37:134
0.0177,0.0364,-0.0099,48.8433,2,15.186,15:33:38:134
-0.014,0.0145,0.0288,48.5723,2,15.328,15:33:39:134
0.0215,0.0097,-0.0955,48.4218,2,15.265,15:33:40:135
-0.0027,-0.0045,0.0595,48.5718,2,15.361,15:33:41:134
0.004,0.0028,-0.0188,47.8558,2,15.318,15:33:42:134
-5.00E-04,-0.0091,-0.03,48.4278,2,15.349,15:33:43:134
0.0059,-0.0126,0.0398,48.5706,2,15.422,15:33:44:134
0.0172,-0.0232,-0.041,48.1546,2,15.562,15:33:45:135
-0.0128,-0.0186,-0.0338,48,2,15.324,15:33:46:133
0.0076,0.0329,-0.0346,48.5791,2,15.439,15:33:47:134
-0.0069,-0.0506,-0.0442,47.8503,2,18.119,15:33:48:134
-0.0035,-0.0087,-0.0101,50.4252,2,15.324,15:33:49:134
-0.0162,0.0049,0.065,47,2,16.527,15:33:50:134
-0.0147,-0.0049,0.0153,46.8448,2,21.757,15:33:51:134
0.006,0.0103,0.0686,48.4244,2,16.702,15:33:52:135
0.0077,-0.0153,-4.00E-04,47.4192,2,18.457,15:33:53:135
0.0027,0.0078,-0.0181,48.1572,2,35.224,15:33:54:134
0.0056,-0.0159,-0.0108,46.8555,2,15.72,15:33:55:133
0.0197,0.0362,0.0424,46.4187,2,15.358,15:33:56:135
0.006,-0.0287,-9.00E-04,47,2,15.444,15:33:57:134
-0.0011,0.0171,-0.0532,46.8462,2,15.488,15:33:58:135
-0.0117,0.0266,0.0044,49.838,2,15.538,15:33:59:134
0.023,0.0202,-0.0504,48,2,15.433,15:34:00:143
-0.0102,-0.0138,0.029,48.4167,2,15.5,15:34:01:135
0.0021,-0.0282,-0.0384,48,2,15.478,15:34:02:135
-0.0223,-0.0025,-0.0399,49.5812,2,17.028,15:34:03:134
-0.006,0.0276,-0.0726,48.5816,2,15.897,15:34:04:135
0.0116,7.00E-04,-0.0245,48.8426,2,15.871,15:34:05:134
-0.0251,0.0022,0.0543,49.5776,2,15.562,15:34:06:137
-0.0113,0.0388,0.0072,49.421,2,15.555,15:34:07:136
-0.0122,0.0053,-0.0476,48.8259,2,27.065,15:34:08:135
0.0092,-0.0166,0.0167,49.4184,2,26.458,15:34:09:134
-0.0216,-0.003,0.0177,49.419,2,15.457,15:34:10:134
-9.00E-04,-5.00E-04,-0.0218,49.5785,2,15.487,15:34:11:135
0.0121,0.0138,-0.0249,50,2,42.848,15:34:12:135
-0.0205,-0.0037,0.0461,49.5808,2,16.069,15:34:13:136
0.0183,-0.0263,0.0233,49,2,21.261,15:34:14:135
-0.0194,0.0357,0.0174,49.1585,2,20.335,15:34:15:135
-0.0515,-0.0144,0.0166,49.4201,2,17.491,15:34:16:134
-0.0214,0.0264,-0.0293,48.5775,2,20.641,15:34:17:136
0.015,0.0333,0.009,47.841,2,15.37,15:34:18:135
-0.0256,0.0201,0.0111,47.838,2,15.326,15:34:19:134
-0.0339,0.0099,-0.0397,48.5901,2,15.41,15:34:20:135
0.0076,0.0353,-0.0142,47.8265,2,15.48,15:34:21:134
0.0158,0.0027,-0.0513,48.1588,2,15.457,15:34:22:135
0.0084,0,-0.0362,46.8421,2,15.372,15:34:23:134
-0.0044,-0.027,0.0704,48,2,15.471,15:34:24:135
-0.0414,-0.0318,-0.0709,48.5778,2,15.365,15:34:25:135
-0.0267,0.0063,0.0369,48.835,2,15.577,15:34:26:134
-0.0238,-0.0074,0.0288,48.1624,2,15.583,15:34:27:136
-0.0138,0.0382,-0.0243,47.4172,2,18.055,15:34:28:136
-0.0067,-0.0167,-0.025,47.5784,2,17.269,15:34:29:135
0.0112,0.014,-0.0727,47.4163,2,42.875,15:34:30:141
-0.0089,0.0034,-0.0185,47,2,35.69,15:34:31:135
-0.0368,0.0061,-0.0461,46.8453,2,18.832,15:34:32:134
-0.0279,-0.0327,0.0449,46.8387,2,41.884,15:34:33:135
0.0077,0.0017,-0.0489,48,2,15.419,15:34:34:134
-0.0251,0.0303,-0.0276,48.5783,2,15.467,15:34:35:134
0.0171,-0.0333,-0.0268,47.8307,2,22.134,15:34:36:135
0.002,0.0025,-0.0174,46.5816,2,15.389,15:34:37:137
0.0297,0.0211,-0.0178,46,2,40.788,15:34:38:135
0.0236,0.0333,0.0434,47,2,29.338,15:34:39:135
-0.0157,-0.029,0.0152,47.1609,2,16.202,15:34:40:135
0.0152,0.0253,0.0592,47.42,2,16.719,15:34:41:134
-0.0578,0.0263,-0.0416,47,2,44.167,15:34:42:134
-0.0065,-0.0016,0.0025,46.8253,2,15.346,15:34:43:134
0.0052,0.0356,0.0383,47.1729,2,15.429,15:34:44:136
-0.0301,0.0403,0.0504,46.8423,2,15.573,15:34:45:134
-0.0032,0.013,-0.0581,46.8304,2,18.011,15:34:46:136
-0.0079,-0.0243,0.0199,48,2,15.371,15:34:47:136
-0.0187,-0.0169,0.0607,47.5784,2,16.278,15:34:48:134
0.0166,-0.0181,-0.0164,47.4162,2,15.814,15:34:49:135
-0.0262,-0.0099,0.0327,46.8413,2,15.808,15:34:50:134
0.0048,-0.0036,-0.0228,46.8413,2,15.547,15:34:51:134
0.0165,0.0256,0.0429,47.5811,2,15.254,15:34:52:134
0.0062,-0.0245,0.0247,46.4186,2,15.421,15:34:53:135
0.0136,-0.0108,-0.0418,47.1619,2,15.361,15:34:54:135
-0.0135,-0.0581,-0.02,46.5778,2,15.325,15:34:55:136
0.0077,-0.0108,-0.0341,47,2,15.374,15:34:56:134
-0.0081,-0.0022,-0.0743,47.4207,2,15.457,15:34:57:134
0.0145,0.0121,0.0023,46.5791,2,15.393,15:34:58:135
6.00E-04,-0.0107,-0.012,47.4201,2,15.685,15:34:59:135
0.0187,0.0125,-0.007,47.584,2,15.702,15:35:00:134
-0.0123,-0.0303,-0.0636,47.5729,2,15.847,15:35:01:133
-0.01,0.0263,0.049,47.5707,2,15.504,15:35:02:135
-0.0079,-0.0105,0.0166,47.5798,2,15.352,15:35:03:136
0.0086,0.024,0.0199,47.5806,2,15.356,15:35:04:135
0.029,-0.0206,-0.0543,47.1566,2,15.336,15:35:05:134
-0.023,-0.0426,0.0443,47.5798,2,15.268,15:35:06:136
0.0137,0.0304,0.006,47.42,2,15.382,15:35:07:135
-0.0085,-0.0347,-0.007,47.4208,2,15.361,15:35:08:135
-0.0166,-0.0042,-0.049,47.8184,2,15.427,15:35:09:134
0.0167,-0.0316,0.0292,47.5819,2,15.475,15:35:10:135
0.0011,-0.0405,-0.0312,47.4193,2,15.513,15:35:11:136
-0.0102,-0.0375,0.0027,48.1569,2,17.1,15:35:12:135
-0.0148,-0.0233,0.0219,48.4178,2,15.569,15:35:13:135
0.0087,0.0268,-0.028,48.1593,2,23.398,15:35:14:135
-0.0247,-0.0133,-0.0438,47.8398,2,20.914,15:35:15:136
0.0211,0.0373,-0.0369,48.1628,2,15.365,15:35:16:135
-0.0143,0.0038,-0.0422,47.5837,2,15.377,15:35:17:135
0.0185,0.0104,-0.0163,47.5787,2,19.25,15:35:18:135
0.003,0.0178,0.0753,47.4259,2,15.432,15:35:19:134
-0.0082,-0.0152,-0.0122,46.8429,2,15.453,15:35:20:134
-7.00E-04,-0.051,-0.0067,47.5803,2,15.459,15:35:21:134
-0.0152,6.00E-04,0.0078,47.4162,2,15.504,15:35:22:134
0.0195,-0.0047,0.0286,47,2,15.44,15:35:23:134
-0.0233,-0.0268,-0.0271,47.5803,2,15.335,15:35:24:134
0.0094,-0.0165,-0.0133,47.5789,2,16.758,15:35:25:135
-0.0048,0.0021,-0.0256,47,2,16.524,15:35:26:135
-0.0084,0.0258,-0.0187,47.1582,2,15.955,15:35:27:134
-0.014,-7.00E-04,0.0551,47,2,15.807,15:35:28:135
0.0063,-0.0103,0.0142,47.58,2,15.417,15:35:29:135
0.0141,0.0113,0.0157,47.1583,2,15.414,15:35:30:134
-0.012,0.0394,0.0506,46.8391,2,29.59,15:35:31:136
-0.03,0.0035,-0.048,47.5795,2,15.367,15:35:32:134
-0.0168,0.0082,-0.019,47.1608,2,15.348,15:35:33:135
0.0232,-0.0223,-0.091,46,2,15.342,15:35:34:135
0.0474,-1.00E-04,-0.0212,47.5889,2,39.257,15:35:35:135
0.0058,0.0071,0.0267,47.1669,2,15.455,15:35:36:134
-0.0032,-0.0273,0.0564,47.4208,2,15.538,15:35:37:135
-0.0144,-0.011,0.0066,47.5656,2,16.671,15:35:38:134
-0.0376,-0.0356,0.0581,47.1714,2,50.866,15:35:39:134
0.0251,-0.0258,-0.0097,46.8392,2,22.09,15:35:40:135
-0.0033,0.0438,-0.0508,47.5807,2,15.302,15:35:41:134
-0.0301,-0.0215,-0.0855,46.858,2,16.641,15:35:42:134
-0.0175,-0.0037,-0.0088,46,2,15.419,15:35:43:134
0.0144,-0.0011,-0.0592,47.5758,2,15.941,15:35:44:135
0.008,0.0051,0.0112,47.1519,2,16.666,15:35:45:134
-0.02,0.0117,0.009,46.8471,2,15.421,15:35:46:135
0.0026,-7.00E-04,0.0363,47.5702,2,15.373,15:35:47:134
-0.0032,-0.0222,-0.0378,47.5819,2,15.315,15:35:48:135
-0.017,0.0153,0.0494,47.1483,2,15.438,15:35:49:150
-0.0098,-0.0021,0.0138,47.4253,2,15.579,15:35:50:134
-0.0177,0.0086,-0.0288,48,2,15.503,15:35:51:134
0.0234,-0.0554,-0.0016,46,2,15.593,15:35:52:134
0.0084,0.0142,0.0374,47.5659,2,15.509,15:35:53:135
0.0334,0.01,-0.0259,47.4197,2,15.414,15:35:54:135
-0.0061,0.0206,-0.0353,47.1328,2,34.771,15:35:55:133
-0.0083,-0.0202,0.0028,47.4198,2,15.965,15:35:56:134
0.0195,0.0064,-0.0416,47.579,2,15.529,15:35:57:134
0.0097,-0.0179,0.0496,46.819,2,17.568,15:35:58:135
-0.0057,-0.013,-0.0714,47.4205,2,15.302,15:35:59:135
-0.005,-0.0214,0.019,47.5768,2,15.541,15:36:00:135
-0.0103,0.0266,0.0281,47.4174,2,15.408,15:36:01:134
-0.0165,-0.0194,0.0319,47.4272,2,15.408,15:36:02:134
0.0121,-0.0032,0.0071,47.5806,2,15.342,15:36:03:134
0.0072,-0.0155,-0.0151,47.1353,2,24.431,15:36:04:136
0.0034,0.0341,0.0014,47.4127,2,15.575,15:36:05:134
-0.0078,-0.0334,-0.0406,47.5864,2,15.621,15:36:06:135
-0.0229,0.0343,0.0238,46.8308,2,15.355,15:36:07:135
-0.0047,-0.0328,-0.0125,46.8363,2,15.378,15:36:08:134
0.0177,-0.0035,-0.0169,47.5803,2,15.643,15:36:09:135
0.0025,0.0522,0.0263,46.4189,2,18.195,15:36:10:134
0.0085,-0.0448,-5.00E-04,47.1595,2,15.999,15:36:11:134
0.0048,-0.0025,0.0117,47.4341,2,30.933,15:36:12:134
-0.0157,0.0087,0.0077,47.579,2,44.99,15:36:13:135
0.0195,-0.0614,0.0245,46.8425,2,15.4,15:36:14:135
-0.0054,0.0251,-0.014,47.4211,2,32.667,15:36:15:134
0.0114,0.0129,-0.0156,47.5798,2,15.425,15:36:16:134
-0.0233,0.046,0.0259,46.84,2,15.945,15:36:17:136
-0.0111,0.0173,0.0074,47.1654,2,15.423,15:36:18:134
0.0075,-0.0198,0.0608,47.566,2,15.394,15:36:19:134
-0.0292,4.00E-04,0.0095,47.1731,2,15.487,15:36:20:134
0.0039,0.0258,-0.0652,47.4166,2,15.403,15:36:21:137
-0.0374,0.0129,0.0156,47,2,15.456,15:36:22:134
-0.0044,-0.0059,-0.0072,46.8528,2,15.419,15:36:23:133
-0.0139,-0.0187,0.054,46.5788,2,15.47,15:36:24:135
3.00E-04,-0.0133,0.0216,47,2,15.584,15:36:25:134
0.0032,-0.016,0.0258,46.8429,2,15.9,15:36:26:134
-0.0023,-0.0177,0.0407,47.4156,2,15.462,15:36:27:134
-0.0099,-0.0242,-0.0507,47,2,15.398,15:36:28:136
0.0145,-4.00E-04,0.0319,47.1589,2,15.362,15:36:29:139
0.0029,-0.0338,0.0601,47.4212,2,15.443,15:36:30:134
0.0017,-0.01,0.0377,47,2,15.425,15:36:31:135
0.0363,-0.015,0.002,47.1373,2,15.465,15:36:32:134
0.012,0.0133,0.0786,46.5844,2,15.471,15:36:33:136
0.0046,0.0052,-0.0095,46.4207,2,19.298,15:36:34:134
-0.0093,-0.0219,-0.0382,47.1621,2,15.575,15:36:35:135
-0.0253,-0.0093,-0.011,46,2,15.497,15:36:36:134
-0.0133,0.0037,0.0964,47,2,15.516,15:36:37:135
0.004,-0.0178,0.0041,46.4234,2,15.46,15:36:38:135
-0.0049,0.0022,0.0121,46.5789,2,18.942,15:36:39:134
-0.0087,-0.0202,0.0432,46.4331,2,15.847,15:36:40:134
0.01,-0.0511,-0.002,47.1317,2,16.005,15:36:41:133
-0.0298,0.0233,0.0455,46.8694,2,15.678,15:36:42:133
-0.0178,0.0074,0.0016,47.4347,2,16.05,15:36:43:134
-0.0327,-0.0224,0.0246,46.5705,2,18.616,15:36:44:133
-0.0397,-0.0033,-0.0093,47.1306,2,15.429,15:36:45:134
-0.0277,0.0108,-0.0098,46.5653,2,15.624,15:36:46:133
-0.013,-0.0689,0.0471,46.4344,2,15.384,15:36:47:133
-0.0155,-0.0176,-0.0162,45.8691,2,15.428,15:36:48:134
-0.0527,-0.0251,-0.0209,46.5653,2,15.47,15:36:49:133
-0.0436,-0.0175,0.0484,46.4345,2,15.436,15:36:50:133
-0.0426,-0.0227,-0.0044,46.5661,2,15.433,15:36:51:134
-0.0451,-0.0198,-0.0417,46.4344,2,26.031,15:36:52:133
-0.0217,-0.03,-0.0656,48,2,15.512,15:36:53:133
-0.0611,-0.0044,-0.028,47.1406,2,15.749,15:36:54:133
-0.0352,0.0113,-0.0719,47.5766,2,16.005,15:36:55:135
-0.0368,-0.0158,0.001,47.4142,2,15.377,15:36:56:135
-0.0388,-0.0456,0.0804,47,2,15.654,15:36:57:134
-0.0346,0.0049,0.122,47.1624,2,15.551,15:36:58:135
-0.0137,-0.0214,0.0565,47.4203,2,16.227,15:36:59:135
-0.0591,-0.0127,-0.0542,47.4199,2,15.509,15:37:00:134
-0.0254,-0.0385,0.0057,47.1582,2,15.444,15:37:01:135
-0.0334,-0.0283,0.006,47.4321,2,24.598,15:37:02:134
-0.0421,0.0183,-0.0243,47.1575,2,15.468,15:37:03:134
-0.0337,-0.0032,-0.0064,47.5824,2,15.334,15:37:04:135
-0.0568,0.0086,-0.0275,46.8358,2,15.378,15:37:05:134
0.0064,0.0431,-0.0697,47.1586,2,15.517,15:37:06:135
-0.0424,0.0112,-0.0107,48,2,15.457,15:37:07:134
0.0084,-0.024,-0.0078,47.16,2,15.466,15:37:08:135
-0.0282,-0.0175,-0.0765,46.8122,2,15.408,15:37:09:136
-0.0155,0.0125,0.0573,47.5806,2,15.35,15:37:10:145
-0.0141,0.0215,-0.0324,46.8397,2,15.387,15:37:11:135
-0.0077,-0.0128,0.0156,46,2,16.547,15:37:12:134
-0.0103,0.0057,-0.0327,46,2,17.799,15:37:13:134
-0.018,0.0043,0.0333,47,2,15.815,15:37:14:134
9.00E-04,-0.0037,-0.0169,47,2,15.752,15:37:15:136
-0.0227,-0.0289,0.052,46.8639,2,15.564,15:37:16:133
-0.0138,-0.0126,0.0622,47,2,15.604,15:37:17:135
0.0052,0.0079,0.0103,47.5784,2,20.5,15:37:18:134
0.0071,-0.0143,0.0429,46,2,39.738,15:37:19:134
-0.0015,0.0109,-0.0633,46.5795,2,15.49,15:37:20:134
0.0121,-0.0085,-0.0211,47.5817,2,15.407,15:37:21:134
-0.0046,-0.0244,4.00E-04,47,2,45.781,15:37:22:133
-0.0066,-0.027,0.0203,47.1594,2,35.949,15:37:23:134
-0.0203,0.0194,0.0082,47.4237,2,15.582,15:37:24:135
-0.0099,0.0213,-0.0344,47.1724,2,15.534,15:37:25:135
-0.0255,0.0027,-0.0348,46.4202,2,15.388,15:37:26:135
-0.0207,0.0267,0.1298,46.5793,2,15.726,15:37:27:134
0.0138,-0.0154,-0.0183,46.8617,2,15.381,15:37:28:134
-0.0184,-0.0131,0.0206,46.8369,2,31.065,15:37:29:134
0.0096,-0.0114,0.0625,46.5791,2,51.242,15:37:30:134
-0.0126,-0.0314,0.0097,46.4143,2,22.66,15:37:31:134
0.0188,-0.0109,-0.0051,47.1492,2,17.434,15:37:32:133
-0.0028,0.0295,0.004,47.1575,2,25.699,15:37:33:134
-0.0262,0.0614,-0.0341,46.4207,2,62.234,15:37:34:134
-0.0085,-0.0073,0.0154,46.4184,2,56.157,15:37:35:136
0.0169,-0.0198,-0.0501,46.8403,2,15.416,15:37:36:136
0.0153,0.0458,-0.0564,47,2,15.793,15:37:37:134
0.009,-0.042,0.0309,46.4209,2,42.201,15:37:38:135
0.0041,-0.0121,-0.0847,46.5804,2,15.511,15:37:39:134
-0.0269,0.0318,-0.0251,46.5791,2,15.641,15:37:40:134
0.008,0.0133,0.0108,46.418,2,15.478,15:37:41:134
-0.0105,0.0208,0.0199,46.8492,2,15.568,15:37:42:134
0.0074,0.0156,-0.0038,46.4316,2,15.504,15:37:43:133
0.0035,-0.0197,0.0057,46.434,2,15.449,15:37:44:133
-0.0132,-0.0062,0.0321,47,2,15.487,15:37:45:135
0.0073,0.0276,-0.0205,47.159,2,15.392,15:37:46:134
-0.0245,-0.0044,0.0386,47.1548,2,15.795,15:37:47:134
0.032,0.0322,0.0197,46.4329,2,15.557,15:37:48:134
-0.0123,-0.0209,0.0516,47.4222,2,15.604,15:37:49:134
-0.0163,-0.0025,-0.0123,46.5741,2,15.424,15:37:50:134
0.0047,0.0012,0.0094,46.4309,2,15.301,15:37:51:134
-0.0016,-0.0442,-0.0188,46.8573,2,15.355,15:37:52:135
-0.0167,0.0036,0.033,47.1574,2,15.455,15:37:53:137
0.0105,0.0059,-0.0036,46.4285,2,15.425,15:37:54:134
-0.0032,-0.0205,-0.0044,46.5724,2,15.406,15:37:55:134
0.0039,0.0353,0.0578,46.5802,2,15.437,15:37:56:134
0.0285,0.0033,-4.00E-04,46.5723,2,15.537,15:37:57:134
-0.0159,-0.0228,-0.0283,46.4242,2,15.522,15:37:58:134
0.0262,-0.0131,-0.0233,46.8519,2,15.537,15:37:59:134
0.0098,-0.0383,-0.0757,46.4165,2,15.827,15:38:00:134
0.0141,-0.0033,0.0657,46.8416,2,39.788,15:38:01:135
-0.0124,0.0087,0.0472,47.1454,2,15.643,15:38:02:134
0.0088,5.00E-04,-0.0146,46.5802,2,15.266,15:38:03:135
-0.0266,0.0026,0.0796,46.4211,2,15.356,15:38:04:134
-0.0175,0.0017,-0.0365,46.8445,2,15.335,15:38:05:134
-0.0049,0.0152,0.0159,46.4179,2,15.673,15:38:06:134
-0.0071,0.0039,-0.0178,46.4217,2,15.775,15:38:07:135
-0.0123,0.0218,0.0029,46.579,2,15.403,15:38:08:134
-0.0227,-0.0134,-0.0226,46.4275,2,16.418,15:38:09:135
-0.0051,-0.0242,0.0454,47.1585,2,15.411,15:38:10:135
0.0031,0.0283,-0.1,46.4176,2,15.523,15:38:11:137
-0.0055,-0.0287,0.002,46.4325,2,15.474,15:38:12:135
-0.0081,-0.0121,0.0404,46.5802,2,15.444,15:38:13:136
0.0391,0.0096,0.0466,46.4264,2,15.572,15:38:14:135
0.0386,-0.0143,-0.0517,47,2,15.547,15:38:15:134
-0.017,-0.0327,-0.0153,47.1324,2,15.541,15:38:16:134
-0.008,0.0031,-0.0383,47,2,15.578,15:38:17:134
-0.0186,-0.0026,0.0604,46.4193,2,15.532,15:38:18:135
0.0017,-0.0132,-0.0018,46.5789,2,15.52,15:38:19:135
0.022,-0.0412,0.0586,46.4035,2,15.48,15:38:20:134
0.0071,-0.0106,0.0161,46.5677,2,15.438,15:38:21:135
0.0015,0.0128,0.0199,47,2,15.359,15:38:22:133
0.0013,-0.0036,-0.0039,47.5801,2,15.461,15:38:23:135
0.0077,0.0142,-0.0689,46.4198,2,15.313,15:38:24:134
-0.0314,-0.0159,-0.0403,47,2,15.396,15:38:25:136
0.0117,-0.0198,-0.027,46.4191,2,15.405,15:38:26:134
-0.0091,0.0198,-0.0464,47.4338,2,15.383,15:38:27:134
0.0145,0.0029,0.0227,46.5804,2,15.355,15:38:28:135
0.0392,-0.018,0.0588,47.4192,2,15.388,15:38:29:135
-0.0166,0.0196,0.0172,47.1577,2,15.28,15:38:30:134
-0.0288,0.025,0.0376,47.1342,2,15.356,15:38:31:135
0.0213,-0.0345,-0.0079,47.4322,2,15.473,15:38:32:135
-0.0123,0.0072,0.0278,46.5814,2,15.319,15:38:33:135
0.0029,0.0078,0.0329,46.8359,2,15.389,15:38:34:134
-0.0287,0.0251,0.09,47,2,15.391,15:38:35:134
-0.0041,-0.0184,0.0129,47.1631,2,15.344,15:38:36:134
-1.00E-04,-0.0208,0.0141,47.4179,2,15.359,15:38:37:135
-0.0124,-0.0012,0.0238,46.839,2,15.439,15:38:38:136
0.014,0.0084,-0.0396,48,2,18.501,15:38:39:134
0.006,0.0326,-0.0296,47.1604,2,15.458,15:38:40:135
-0.0128,-0.0032,-0.0258,46,2,15.343,15:38:41:135
0.001,0.0211,-0.008,47.5806,2,15.417,15:38:42:135
0.0195,-0.0248,0.0295,47.1619,2,15.569,15:38:43:135
-0.0288,-7.00E-04,-0.0617,47.1575,2,15.486,15:38:44:134
-0.0052,0.017,0.0161,46.8364,2,15.569,15:38:45:135
-0.0053,-0.0207,-0.0454,47.1539,2,15.432,15:38:46:135
0.0012,0.0011,-0.0314,46.8602,2,15.441,15:38:47:134
-0.0018,-0.0065,-0.0183,47.1604,2,38.74,15:38:48:134
-0.0276,0.0217,0.0184,47,2,15.477,15:38:49:134
-0.0156,-0.0123,-0.0128,46.8561,2,15.557,15:38:50:134
0.0058,0.0217,-0.0415,47,2,15.618,15:38:51:134
0.0167,0.0211,0.0089,46.4218,2,15.637,15:38:52:134
-5.00E-04,0.0141,-0.0091,46.4272,2,15.52,15:38:53:134
0.0228,0.0055,0.0209,46.428,2,15.516,15:38:54:134
-0.0139,-0.0091,0.0109,48,2,16.336,15:38:55:134
-0.0501,0.0052,-0.0116,46.429,2,15.598,15:38:56:135
0.0188,-0.0183,-0.0131,46.4307,2,15.574,15:38:57:134
-0.0068,0.0382,-0.0543,47.1486,2,15.448,15:38:58:134
-0.0281,-0.0069,0.0416,46.4262,2,15.513,15:38:59:134
0.011,-3.00E-04,-0.0398,46.853,2,15.457,15:39:00:134
-9.00E-04,0.006,-0.0446,47.1511,2,15.545,15:39:01:134
-0.0211,4.00E-04,0.0116,48,2,16.159,15:39:02:134
0.0213,0.0485,0.0515,46.4249,2,17.377,15:39:03:134
-0.0029,0.0151,0.0131,47,2,16.563,15:39:04:134
0.0385,-0.0237,-0.0115,46.8604,2,15.422,15:39:05:134
0.0252,-0.032,0.0085,47,2,37.786,15:39:06:134
0.0179,0.0355,0.0487,46.4309,2,15.394,15:39:07:135
-0.0375,-0.0198,-0.0239,46.576,2,15.955,15:39:08:134
-0.0106,0.0499,-0.0087,46.4227,2,15.77,15:39:09:134
-0.0152,0.0197,0.034,46.5758,2,15.531,15:39:10:134
-0.0087,-6.00E-04,0.0058,46.4276,2,15.447,15:39:11:134
-0.0042,8.00E-04,-0.0039,48,2,15.462,15:39:12:134
-0.0128,-0.0055,-0.0476,46.5747,2,15.395,15:39:13:135
-0.0048,-0.0176,-0.0096,46.4205,2,15.384,15:39:14:134
0.0365,-0.0428,0.0079,46.5811,2,15.352,15:39:15:135
0.0079,0.0247,0.0215,46.4208,2,15.323,15:39:16:135
0.0093,-0.0256,-0.0292,46.4251,2,15.461,15:39:17:135
0.0056,0.0023,-0.0511,46.5735,2,15.682,15:39:18:135
0.0121,0.0085,-0.0652,46.4197,2,15.258,15:39:19:134
0.0217,-0.0015,0.0136,46.5847,2,15.424,15:39:20:134
0.0176,0.0342,0.0023,46,2,15.335,15:39:21:135
0.0255,-0.0433,-0.0074,47.4286,2,15.467,15:39:22:134
0.0178,0.0139,-0.0248,46.4142,2,15.477,15:39:23:135
-0.0026,-0.0129,-0.0108,46.8604,2,15.509,15:39:24:135
0.0023,0.0108,-0.001,46.4309,2,15.502,15:39:25:134
-0.0063,-0.0255,-0.0098,47.1527,2,15.475,15:39:26:134
-0.0281,-0.0021,0.0336,47.5783,2,15.487,15:39:27:135
0.0318,-0.0307,-0.018,47.1466,2,15.534,15:39:28:134
0.0377,1.00E-04,0.0268,46.5808,2,15.55,15:39:29:135
-0.0022,0.0142,0.0546,46.4182,2,15.426,15:39:30:134
-0.0151,-0.0147,-0.0438,46.8409,2,15.627,15:39:31:135
0.0076,0.0146,-0.0483,46.4195,2,15.472,15:39:32:133
-0.0012,-0.0033,0.0102,46.8402,2,15.451,15:39:33:135
0.0328,-0.0209,-0.0334,46.4126,2,15.669,15:39:34:135
-0.0168,0.0051,-0.0186,46.4201,2,15.59,15:39:35:135
0.003,-0.0258,0.0126,46.5757,2,15.546,15:39:36:135
-0.0183,0.0087,0.0018,46.8357,2,15.523,15:39:37:134
0.0065,-0.0137,0.0203,46.8435,2,15.542,15:39:38:135
0.0274,-0.0085,-0.0181,47,2,15.434,15:39:39:135
0.0226,0.0265,-0.033,48,2,15.511,15:39:40:134
0.0334,0.0304,0.0407,46.4196,2,15.35,15:39:41:134
-0.0104,0.0029,-0.0031,46.4161,2,15.385,15:39:42:134
0.0017,0.0075,-0.0323,46.5876,2,15.472,15:39:43:135
-0.004,0.0208,-0.079,47.16,2,15.45,15:39:44:134
-0.0213,0.0153,0.0085,46.5851,2,15.556,15:39:45:134
-0.0161,0.0034,-0.0309,46.4209,2,15.391,15:39:46:136
0.0072,-0.0053,-0.0228,48,2,15.388,15:39:47:136
0.0293,0.0228,0.0177,47.4218,2,15.402,15:39:48:135
-0.0163,0.0093,-0.0131,46.8411,2,15.387,15:39:49:134
-0.0165,-0.0039,0.0109,47.162,2,15.467,15:39:50:134
0.002,-0.0393,0.0161,46.4283,2,15.348,15:39:51:134
-0.0079,0.0281,0.0337,47.1602,2,15.348,15:39:52:134
0.0037,0.0026,0.0338,46.8382,2,15.324,15:39:53:135
-0.0178,-0.017,-0.0106,47,2,15.269,15:39:54:134
0.0047,-0.0307,-0.0566,47.1584,2,15.372,15:39:55:135
0.0162,-0.001,0.0195,46.4189,2,15.468,15:39:56:134
0.0211,-0.007,0.0163,46.8321,2,15.371,15:39:57:134
-0.0025,-0.0062,0.0343,46.4253,2,15.36,15:39:58:134
0.0041,-0.0217,-0.0244,46.8204,2,15.432,15:39:59:134
-0.0314,-0.0317,0.0144,46.5797,2,15.359,15:40:00:135
-0.0469,0.0107,-0.0143,46.4252,2,15.464,15:40:01:135
0.0108,0.0042,-0.0161,46.417,2,15.417,15:40:02:134
0.0027,0.0203,-0.0359,46.8402,2,15.586,15:40:03:134
-0.0284,-1.00E-04,0.0301,47.421,2,15.397,15:40:04:136
-0.0052,0.0403,0.0552,46.8312,2,15.426,15:40:05:135
0.0077,0.0211,0.0577,47.4141,2,15.317,15:40:06:135
0.0116,-0.0044,0.0342,46.5815,2,15.355,15:40:07:135
-0.0194,-0.0033,-0.0221,46.5796,2,15.378,15:40:08:134
0.0155,-0.0142,-0.0192,46.8426,2,15.357,15:40:09:134
-0.0034,-0.0305,0.0221,47.1636,2,15.319,15:40:10:133
-0.0419,-0.0108,0.0182,46.4193,2,15.387,15:40:11:134
-0.0218,-9.00E-04,0.0031,47.1541,2,15.337,15:40:12:133
0.0093,-0.0393,0.0257,47,2,15.44,15:40:13:135
-0.017,-0.0046,0.0072,47.5825,2,15.355,15:40:14:136
-0.0224,0.0471,-0.0025,47.4209,2,15.404,15:40:15:134
-0.014,0.0107,0.0339,47.1855,2,15.417,15:40:16:135
0.0028,0.0149,0.0841,46.5796,2,15.403,15:40:17:134
-0.0284,-0.0058,0.006,46.4214,2,15.384,15:40:18:135
-0.0073,-0.0028,0.0447,46.5984,2,15.432,15:40:19:134
0.0029,0.0407,-0.02,46.4194,2,15.469,15:40:20:136
-0.0829,-0.0196,0.0324,46.5814,2,15.347,15:40:21:135
0.023,0.0178,-0.0201,46.4228,2,15.442,15:40:22:134
0.0104,0.011,0.0277,46.5839,2,15.396,15:40:23:135
0.0045,0.0064,-0.0086,46.4192,2,15.317,15:40:24:134
0.0078,-0.0021,-0.047,47.1567,2,17.384,15:40:25:134
0.0068,-0.0178,-0.0053,46.4227,2,30.935,15:40:26:134
0.05,-0.0155,-0.0131,46.8553,2,24.682,15:40:27:134
-0.0093,-0.0059,-0.0361,47.5733,2,17.486,15:40:28:134
-0.0095,0.0049,0.0255,47.8649,2,16.021,15:40:29:134
-0.0086,-0.0025,-2.00E-04,47.5841,2,15.511,15:40:30:134
0.007,0.0145,0.0063,46.8459,2,15.421,15:40:31:134
-0.0155,0.0283,-0.0434,47.5672,2,15.284,15:40:32:135
-0.0283,-0.0127,0.0488,47.1705,2,15.464,15:40:33:136
-0.0114,-0.0318,0.0043,47,2,15.422,15:40:34:134
0.0254,-0.0029,-0.0069,47.1544,2,15.528,15:40:35:134
0.008,-0.0206,-0.0286,47.4128,2,15.326,15:40:36:135
-0.0437,0.0086,0.0141,47.1601,2,15.294,15:40:37:134
0.0051,-0.0228,-0.059,47,2,15.292,15:40:38:135
-0.0048,0.0561,-0.0286,47.1741,2,15.4,15:40:39:135
0.0525,-0.029,0.0427,46.4193,2,15.308,15:40:40:134
-0.0234,-0.0161,0.0204,47.149,2,15.433,15:40:41:135
6.00E-04,0.0111,0.023,46.4187,2,15.677,15:40:42:134
0.0163,4.00E-04,0.003,48,2,15.426,15:40:43:135
-0.0133,0.0057,0.0425,47,2,21.712,15:40:44:134
-0.0101,0.0027,0.0656,46.8407,2,24.238,15:40:45:135
-0.0026,0.0186,0.0143,46.4193,2,17.303,15:40:46:135
-0.0132,0.0329,-0.0391,46.862,2,16.331,15:40:47:134
0.0213,0.011,0.0094,46.5662,2,40.023,15:40:48:134
0.0106,0.008,-0.0941,45.8433,2,17.491,15:40:49:134
-0.0234,0.0407,0.0374,46.4181,2,22.488,15:40:50:134
-0.0201,0.021,-0.0113,46.1617,2,15.909,15:40:51:137
-0.0089,-0.0096,0.0468,45.5736,2,30.06,15:40:52:134
-0.0529,0.0377,0.0121,45.4216,2,17.428,15:40:53:134
-0.0216,-0.0064,-3.00E-04,45.5857,2,17.937,15:40:54:136
-0.0091,0.0219,-0.0127,45.4198,2,15.882,15:40:55:135
-0.039,0.0194,0.0511,45.5802,2,15.537,15:40:56:135
0.0411,-0.0028,-0.0255,45.5811,2,15.513,15:40:57:133
-5.00E-04,-0.0269,-0.027,45.1556,2,15.436,15:40:58:134
-0.0107,0.0032,0.0397,45,2,18.714,15:40:59:135
0.0125,-4.00E-04,0.0061,44.8373,2,15.999,15:41:00:135
0.002,0.0166,-0.0213,45.5788,2,15.563,15:41:01:134
0.064,0.0115,-0.0497,45.177,2,15.382,15:41:02:134
-0.0182,-0.0075,-0.0471,45.5668,2,15.391,15:41:03:133
0.0059,0.0298,-0.009,45.1508,2,15.279,15:41:04:134
-0.0011,0.0065,0.0342,45.4133,2,15.409,15:41:05:135
0.0058,-0.0022,0.0043,45.5736,2,15.274,15:41:06:134
-0.0119,0,0.012,45.5788,2,15.498,15:41:07:135
0.0049,0.0106,0.0202,45.4216,2,15.416,15:41:08:134
-0.019,-0.0148,-0.008,45.5739,2,15.303,15:41:09:135
-0.0061,0.0232,0.0364,45.4198,2,15.272,15:41:10:134
-0.0136,0.0062,-0.0142,45.5746,2,15.316,15:41:11:134
-0.0221,-0.0249,-0.0563,45,2,15.51,15:41:12:134
-0.02,0.0299,0.0109,45.5772,2,15.224,15:41:13:134
-0.0039,-0.0098,-0.0441,45.4273,2,15.421,15:41:14:135
-0.0125,-0.0169,-0.041,46.1461,2,15.366,15:41:15:135
-3.00E-04,0.0269,0.0399,45.4273,2,15.4,15:41:16:134
0.0374,-0.0538,-0.015,45.5748,2,25.056,15:41:17:134
0.0094,0.027,-0.0619,45.4209,2,15.371,15:41:18:149
0.0127,-0.0245,0.0144,46.1575,2,15.377,15:41:19:134
0.0029,-0.041,0.021,45.4224,2,15.374,15:41:20:134
0.0131,0.0318,-0.015,46,2,15.317,15:41:21:135
-0.0208,-0.026,0.0042,45.4075,2,15.275,15:41:22:133
-0.0018,0.0025,-0.0899,45.842,2,15.303,15:41:23:135
-0.0173,0.0356,0.0049,46.1605,2,15.274,15:41:24:136
0.0301,-0.004,-0.0399,46.1583,2,15.355,15:41:25:134
3.00E-04,-0.0206,-0.0499,46,2,15.28,15:41:26:134
-0.0225,-0.022,0.0087,46.1543,2,15.336,15:41:27:134
0.0232,0.0021,-0.0285,46.4219,2,15.28,15:41:28:134
-0.0117,-0.0066,-0.0032,47,2,15.731,15:41:29:148
0.0106,-0.0213,-0.0849,46.4209,2,15.339,15:41:30:134
0.016,-0.0306,-0.075,46.1472,2,24.409,15:41:31:134
-0.0028,-0.0289,-0.0347,46.4214,2,15.369,15:41:32:134
-0.0032,-0.0104,-0.0047,46.1397,2,15.43,15:41:33:134
-0.0161,0.0118,-0.0088,46.4253,2,39.309,15:41:34:134
0.0082,0.0084,-0.0314,46.1501,2,18.073,15:41:35:134
0.0016,-0.0305,-0.0306,46,2,15.808,15:41:36:136
0.0288,0.0053,0.0493,46.1609,2,26.293,15:41:37:134
-0.0168,0.0304,-0.0031,46,2,60.219,15:41:38:135
0.0172,-0.1296,0.0622,45,2,66.648,15:41:39:134
-0.0148,-0.0277,-0.0055,46.4206,2,56.991,15:41:40:135
0.0245,-0.0283,0.0092,46.1451,2,15.447,15:41:41:134
-0.0066,-0.0153,0.1475,46.4273,2,15.416,15:41:42:134
0.0221,-0.0024,-5.00E-04,46.4323,2,15.518,15:41:43:134
-0.0125,-0.0542,-0.0276,46.1521,2,15.562,15:41:44:134
-0.0019,-0.0351,0.0086,46.427,2,15.538,15:41:45:134
0.0107,-0.0245,-0.0165,46.1355,2,15.546,15:41:46:134
-0.0013,-0.0161,0.0827,46,2,15.47,15:41:47:135
0.0251,-0.0184,-0.027,45,2,42.695,15:41:48:134
0.004,0.0265,0.0472,46.4231,2,32.31,15:41:49:135
0.0379,0.0191,-0.0017,46.417,2,43.216,15:41:50:134
0.0056,-0.0015,0.0447,46.5818,2,42.033,15:41:51:134
-0.0038,0.0476,-0.0238,46.5776,2,37.107,15:41:52:134
0.0132,-0.0042,-0.0328,46.847,2,31.848,15:41:53:134
-0.0375,0.0268,0.0145,47,2,39.91,15:41:54:134
0.0015,-0.0158,-9.00E-04,46.4181,2,34.597,15:41:55:134
0.0016,0.025,-0.0018,47.1575,2,29.017,15:41:56:134
0.001,0.011,-0.0261,47.5817,2,15.597,15:41:57:134
-0.0122,-0.0261,-0.0611,47,2,17.284,15:41:58:135
-0.0117,-0.0307,0.0496,47.1574,2,26.438,15:41:59:134
0.0279,0.0497,-0.0342,46.8345,2,33.98,15:42:00:135
-0.0208,-0.0077,0.0559,47.5822,2,21.48,15:42:01:134
0.0151,0.0284,-0.0186,46.84,2,19.957,15:42:02:134
-0.0284,0.0443,0.0194,47.5676,2,30.781,15:42:03:135
0.0174,-0.0099,-0.0368,46,2,34.915,15:42:04:134
-0.034,-0.0043,0.0188,47.4274,2,15.373,15:42:05:148
0.0209,-0.0272,-0.0068,47.1496,2,15.41,15:42:06:134
0.0061,0.033,-0.0634,47.4211,2,24.438,15:42:07:134
0.0053,0.0337,0.043,47.4243,2,15.538,15:42:08:134
0.0325,-0.0393,-0.0334,47.1704,2,15.501,15:42:09:134
0.0131,0.0251,0.0634,47.4224,2,15.351,15:42:10:134
5.00E-04,0.0132,-0.0644,47.1516,2,15.543,15:42:11:134
0.0035,-0.0026,-0.0308,47.4203,2,15.575,15:42:12:134
0.0011,0.0016,-0.0048,47.1498,2,15.386,15:42:13:134
-0.0486,-0.0074,0.0544,47,2,24.44,15:42:14:134
-0.0078,0.014,0.0022,47.1558,2,15.514,15:42:15:134
-0.0234,-0.0018,0.016,47,2,15.624,15:42:16:144
-0.0028,0.0121,0.0255,46.8402,2,15.513,15:42:17:134
-0.016,-0.0216,-0.0338,46.4224,2,15.621,15:42:18:134
0.0224,-0.0131,0.0459,46.8425,2,15.514,15:42:19:134
-0.0139,0.0013,0.0388,47.5787,2,15.588,15:42:20:134
-0.0167,0.0259,0.0264,46.841,2,15.485,15:42:21:135
-0.015,-0.0087,-0.0075,47.5818,2,15.449,15:42:22:133
0.0326,0.0401,0.0296,46.838,2,15.603,15:42:23:135
0.0463,-0.0145,-0.0769,47.5766,2,15.478,15:42:24:136
-0.0098,-0.0266,-0.0328,47,2,15.506,15:42:25:133
-0.0196,-0.0129,0.0318,46.4143,2,15.49,15:42:26:134
-0.0204,0.011,0.042,47.1607,2,30.624,15:42:27:135
-0.0136,7.00E-04,0.0296,46.4199,2,15.452,15:42:28:135
0.0064,-0.0179,0.0389,46.8399,2,15.46,15:42:29:134
0.0294,0.0204,9.00E-04,47,2,15.545,15:42:30:135
-0.0032,0.0095,0.0489,46,2,15.43,15:42:31:135
-0.0143,-0.0348,0.0251,47.4191,2,15.473,15:42:32:134
-0.0209,0.0158,0.0057,47.1589,2,15.483,15:42:33:135
-0.0146,-0.0079,0.0529,47.4193,2,15.492,15:42:34:134
0.0107,0.0098,-0.0329,47.1499,2,27.226,15:42:35:134
0.0242,0.0062,0.0154,47.4205,2,15.459,15:42:36:135
0.0314,-0.0087,0.0166,47.148,2,15.376,15:42:37:134
-0.0015,0.04,0.0226,47.4174,2,15.431,15:42:38:135
-0.0073,-0.0042,-2.00E-04,47.1659,2,15.459,15:42:39:135
0.009,0.0035,0.0467,47.5796,2,15.452,15:42:40:136
0.0146,-0.0062,-0.0254,46.4221,2,15.41,15:42:41:135
0.0115,6.00E-04,0.037,47.5678,2,15.464,15:42:42:134
-0.0289,-0.0073,0.0582,46.8445,2,15.407,15:42:43:136
0,-0.0154,-0.0385,47.4155,2,32.809,15:42:44:134
0.0184,-0.0281,-0.0251,47.5907,2,15.392,15:42:45:135
-0.0114,0.0173,0.0086,46.8401,2,16.111,15:42:46:135
-0.0025,-0.0188,0.0261,47.4118,2,15.306,15:42:47:134
0.0201,-0.0133,0.0512,47.1565,2,42.46,15:42:48:134
0.0141,0.0612,-0.0108,47.1607,2,15.575,15:42:49:136
-0.0011,0.0049,0.0583,47.4208,2,15.45,15:42:50:134
-0.0041,-0.0061,0.0313,46.8344,2,15.638,15:42:51:135
-0.0054,3.00E-04,-0.0036,47.5833,2,15.365,15:42:52:134
0.0097,0.0234,0.0143,46.842,2,15.429,15:42:53:135
0.0151,0.0079,0.0099,47.5794,2,15.477,15:42:54:135
-0.0314,-0.037,-0.0123,47.5702,2,15.416,15:42:55:135
-0.0066,0.0191,0.0069,46.8416,2,15.546,15:42:56:135
0.0314,0.0143,-5.00E-04,47.5804,2,15.514,15:42:57:134
0.0032,0.0075,0.0092,46.4162,2,15.475,15:42:58:135
0.03,0.003,0.0465,47.5798,2,15.472,15:42:59:135
-0.0063,0.0072,0.0425,47.5755,2,15.374,15:43:00:136
0.0183,0.0268,0.0214,47.1826,2,45.434,15:43:01:134
0.0154,-0.0255,-0.0662,47,2,15.393,15:43:02:135
0.0103,-0.0044,0.0305,46.8219,2,15.591,15:43:03:134
-0.0191,-0.0046,7.00E-04,46,2,15.447,15:43:04:135
0.0052,-0.007,-0.0134,46.4199,2,15.567,15:43:05:134
-0.02,-0.0251,0.0122,47.1555,2,15.595,15:43:06:134
-0.0094,0.0027,0.0262,47.1649,2,15.589,15:43:07:135
-0.0427,-0.0142,0.0202,46.8373,2,15.61,15:43:08:135
-0.0118,0.0334,0.0419,47.1852,2,15.576,15:43:09:133
0.0058,0.0071,-4.00E-04,46,2,15.545,15:43:10:134
-0.0044,0.0287,0.0137,47,2,15.582,15:43:11:134
0.0115,0.0168,-0.0358,47.1615,2,15.561,15:43:12:134
0.018,0.0127,-0.0123,47.1562,2,15.491,15:43:13:134
-0.0205,0.0021,0.0372,47,2,16.197,15:43:14:134
-0.0066,0.008,0.0303,47.1622,2,17.423,15:43:15:134
0.0163,-0.0218,0.0254,47.58,2,15.572,15:43:16:135
-2.00E-04,-0.0116,-0.0105,46.4201,2,15.443,15:43:17:134
-0.0274,2.00E-04,-0.0222,46.8391,2,15.702,15:43:18:135
-0.0092,0.0392,-0.0044,47.5819,2,16.165,15:43:19:134
0.0107,-0.0278,0.0486,47.1688,2,15.341,15:43:20:135
0.0106,0.0098,0.0037,46.839,2,15.268,15:43:21:134
0.0331,-0.036,-0.0373,47,2,15.271,15:43:22:133
0.0154,-0.0107,-1.00E-04,45.8622,2,15.318,15:43:23:134
-0.0331,-0.0063,0.0013,46.421,2,15.299,15:43:24:134
0.0204,0.0134,-0.0417,46.5874,2,15.656,15:43:25:135
-0.026,-0.0398,-0.0258,46.1899,2,15.389,15:43:26:134
0.0113,-0.0045,-0.0365,47,2,15.451,15:43:27:135
-0.0128,-0.0054,-0.0456,46.5835,2,15.505,15:43:28:133
-0.0042,-0.0023,-0.008,46.4182,2,15.377,15:43:29:135
0.0353,0.0231,-0.0143,46.5727,2,15.462,15:43:30:134
-0.0171,-0.0125,-0.0022,45.822,2,15.515,15:43:31:135
-0.0204,-0.0406,0.0162,46.5723,2,15.355,15:43:32:133
0.0229,-0.0072,0.0287,46.4255,2,15.473,15:43:33:134
0.0242,0.008,-0.0152,47,2,15.551,15:43:34:135
-0.0175,-0.0049,-0.0161,46.4219,2,15.482,15:43:35:135
0.0034,-0.0526,0.0197,47,2,15.315,15:43:36:134
0.0098,-0.0313,0.0108,46.4104,2,15.513,15:43:37:135
0.0065,0.0201,0.05,46.5758,2,15.604,15:43:38:134
0.0372,-0.0195,0.0095,46.4216,2,15.697,15:43:39:135
-9.00E-04,-0.0299,0.0695,46.5738,2,15.5,15:43:40:134
0.0201,0.0195,-0.0228,46.4255,2,15.522,15:43:41:134
-0.0323,0.0378,-0.0252,47.1547,2,15.475,15:43:42:134
0.0094,-0.0059,-0.0134,47.4253,2,30.024,15:43:43:134
0.0308,0.0255,0.0462,47.1604,2,15.425,15:43:44:134
0.0208,0.0047,0.0069,46.5812,2,15.414,15:43:45:136
0.0203,-0.0258,0.0313,46.4208,2,15.442,15:43:46:135
-0.0124,0.0277,0.0346,47.1649,2,15.43,15:43:47:135
0.0072,0.0038,-0.0566,46.4159,2,15.435,15:43:48:135
-0.0044,0.0036,-0.0355,46.4216,2,15.277,15:43:49:134
-0.0367,0.0034,-0.0359,46.5904,2,15.293,15:43:50:135
-0.0011,0.0371,-0.1038,47.4062,2,15.281,15:43:51:134
0.0042,0.0295,-1.00E-04,46,2,15.359,15:43:52:135
-0.0123,-0.0208,-0.0465,47.5718,2,15.517,15:43:53:134
-0.0056,0.0067,-0.0059,46.841,2,15.4,15:43:54:134
0.0211,-3.00E-04,-0.0226,46.8694,2,15.508,15:43:55:134
-0.0018,-5.00E-04,0.0333,46.8482,2,15.507,15:43:56:133
-0.0301,-0.0166,-0.0379,47.5652,2,15.345,15:43:57:134
-0.0043,0.0161,-0.0378,46.1437,2,15.195,15:43:58:134
-0.0089,0.025,0.0173,47,2,15.496,15:43:59:134
-0.0334,-0.0052,0.0088,46.5662,2,39.309,15:44:00:134
-0.0214,0.0216,0.0231,46.1558,2,15.843,15:44:01:133
-0.0672,-0.0082,0.0028,46.4205,2,15.543,15:44:02:134
-0.0351,0.0025,0.0324,45.8681,2,15.501,15:44:03:135
-0.0376,-0.0092,0.0453,46.4153,2,15.855,15:44:04:134
-0.0474,-0.0085,0.0328,46.4319,2,25.287,15:44:05:134
-0.0297,0.0312,0.0168,46.5751,2,22.16,15:44:06:134
-0.0205,-0.0117,-0.0027,46.4319,2,28.821,15:44:07:134
0.0289,-0.0113,0.002,47.1443,2,15.525,15:44:08:134
-0.0293,0.0037,-0.0287,46.5846,2,15.441,15:44:09:134
-0.0018,-0.0068,0.0182,46.5772,2,15.44,15:44:10:134
-0.0574,0.017,-0.0561,46.1423,2,15.319,15:44:11:134
-0.0022,-0.0086,-0.0119,46.5818,2,15.754,15:44:12:134
-0.0099,0.023,-0.0425,46.4285,2,15.37,15:44:13:134
0.023,-0.0081,0.0588,46.5771,2,15.388,15:44:14:134
-0.0257,0.0526,-0.0056,45.8377,2,15.36,15:44:15:134
0.0122,-0.0069,0.0042,46.1591,2,15.281,15:44:16:136
2.00E-04,0.0289,0.0187,46.5747,2,15.38,15:44:17:136
-0.0111,0.0321,0.0061,46.1592,2,15.391,15:44:18:135
0.0133,-0.0076,-0.0465,46.5795,2,15.598,15:44:19:134
0.0225,0.033,-0.0133,45.8397,2,15.471,15:44:20:135
0.0119,-0.0258,-0.0222,45.8421,2,17.111,15:44:21:134
0.0066,0.005,0.0391,46.5665,2,25.906,15:44:22:134
0.0186,-0.0149,0.0638,45.8271,2,15.541,15:44:23:135
-0.009,0.0025,-0.0038,46.4214,2,15.527,15:44:24:135
0.0536,-0.0145,-0.0031,46.5807,2,15.644,15:44:25:136
0.018,-0.0103,-0.0179,46.1617,2,15.533,15:44:26:135
0.0338,-0.022,-0.0238,46.5826,2,16.588,15:44:27:134
0.0241,0.015,-0.0585,46.1628,2,15.414,15:44:28:134
0.0142,0.0241,-0.0037,45.8376,2,22.917,15:44:29:134
-0.0134,-0.0109,-0.0472,46.5799,2,15.344,15:44:30:136
0.0086,0.0213,-0.0119,46.1597,2,15.39,15:44:31:134
-0.008,-0.0014,0.0188,46.4108,2,15.422,15:44:32:134
-0.003,0.03,0.0405,46.5746,2,15.413,15:44:33:134
-0.0207,0.001,-0.0511,45.8589,2,15.384,15:44:34:135
-0.0016,-0.0029,-0.0193,46.4194,2,15.435,15:44:35:134
0.0102,-0.0328,-0.0487,46.5742,2,15.717,15:44:36:133
0.0091,-0.0294,-0.0042,46.4294,2,15.46,15:44:37:134
0.0073,0.0278,-0.0157,45.8563,2,15.571,15:44:38:134
1.00E-04,-0.0075,-0.0123,46.5781,2,15.487,15:44:39:134
0.0123,-0.0152,-0.0018,46.1567,2,15.504,15:44:40:135
-0.0288,0.0342,-0.0472,46.5711,2,15.581,15:44:41:134
0.0025,0.0043,0.0541,46.5779,2,15.477,15:44:42:134
-0.0098,-0.0209,0.0028,46.4113,2,15.51,15:44:43:134
0.0157,-0.0038,-0.0353,46.43,2,15.451,15:44:44:134
0.0177,-0.0033,0.0014,46.5784,2,15.404,15:44:45:134
-0.0282,0.0279,-0.0355,47.1442,2,15.814,15:44:46:134
0.03,0.0117,-0.0237,46.5778,2,15.69,15:44:47:134
0.0147,-0.0257,0.0486,46.4255,2,15.516,15:44:48:134
-0.0059,0.0433,0.0278,47.1581,2,44.7,15:44:49:134
-0.0193,-0.017,-0.0336,47,2,15.405,15:44:50:134
0.026,0.0114,-0.0086,47,2,19.662,15:44:51:134
-0.0091,0.0064,0.0082,46.8571,2,15.375,15:44:52:134
-0.0062,-0.0123,-3.00E-04,47.425,2,15.293,15:44:53:135
0.0016,0.0209,-0.0021,47.5809,2,15.508,15:44:54:134
0.0117,0.0349,0.0519,47,2,15.584,15:44:55:134
0.0223,0.0177,0.0122,46.8454,2,17.484,15:44:56:133
5.00E-04,-0.0376,-0.0316,46.5778,2,15.384,15:44:57:134
-0.0117,0.0135,-0.012,46.8622,2,15.533,15:44:58:133
-0.0265,0.0028,-0.0449,47.161,2,15.584,15:44:59:134
0.0162,-0.0065,0.0333,47,2,15.484,15:45:00:135
0.0033,-0.0077,0.0521,46.8374,2,15.491,15:45:01:134
0.0345,0.0251,-0.0172,47.4191,2,15.383,15:45:02:135
-0.0043,-0.0047,0.0178,47.5802,2,19.372,15:45:03:134
-0.0211,0.0025,0.0426,46,2,15.396,15:45:04:134
-0.0232,0.032,-0.0334,47.5801,2,15.456,15:45:05:134
-0.0127,0.0264,-0.027,47.1631,2,22.418,15:45:06:137
0.0062,0.0096,0.0308,46.5812,2,15.242,15:45:07:150
-0.017,4.00E-04,0.0147,47,2,15.386,15:45:08:137
-0.0092,-0.0177,-3.00E-04,47.5802,2,15.433,15:45:09:135
-0.0141,0.0167,-0.0467,46.8403,2,15.34,15:45:10:134
-0.0258,0.0102,-0.0104,47,2,15.418,15:45:11:135
0.0024,0.0072,0.0428,46.8381,2,15.438,15:45:12:134
0.0245,-0.0047,0.0115,47.1359,2,15.414,15:45:13:133
0.0118,-0.0169,-0.0234,47.4239,2,15.446,15:45:14:134
0.021,0.0222,0.006,46.8421,2,15.438,15:45:15:136
-0.003,0.0665,0.0158,46.5791,2,15.601,15:45:16:134
-0.0323,-0.0063,0.0848,46.4193,2,15.454,15:45:17:136
-0.0204,0.0162,-0.0423,47.161,2,15.539,15:45:18:135
-0.0489,0.0294,0.0477,47,2,15.495,15:45:19:134
0.0073,-0.0097,0.0267,46.8125,2,15.439,15:45:20:135
-0.0135,0.0296,-0.0491,46.8402,2,15.404,15:45:21:134
0.011,0.0107,-0.0019,47.5806,2,20.615,15:45:22:134
0.0227,-0.0135,0.0813,47.153,2,16.855,15:45:23:134
-0.0135,0.0344,-0.0062,46.5766,2,15.868,15:45:24:135
0.0231,0.0427,0.0848,46.4193,2,16.728,15:45:25:134
-0.0061,0.0065,0.0568,46.4211,2,16.355,15:45:26:134
-0.0035,-0.0259,-0.0201,46.8347,2,15.287,15:45:27:134
0.0175,-9.00E-04,0.0113,47,2,15.325,15:45:28:135
0.0119,-0.0138,0.0162,47.1566,2,15.445,15:45:29:135
0.0032,-0.018,-0.0289,48,2,30.349,15:45:30:134
-0.0029,0.043,-0.0369,47,2,15.709,15:45:31:134
-0.0235,0.0089,-0.0056,46.8415,2,15.514,15:45:32:135
-0.0617,-0.0354,-0.0293,46.5911,2,15.534,15:45:33:134
0.0209,-0.0283,-0.0308,47,2,20.896,15:45:34:134
0.036,-0.0028,-0.0692,46.8419,2,15.477,15:45:35:135
0.0184,-4.00E-04,0.0175,46.5899,2,17.127,15:45:36:135
0.0187,-0.0249,0.0091,46.4194,2,15.551,15:45:37:134
-0.0265,0.0066,-0.0071,47.1582,2,17.008,15:45:38:135
-0.0135,-0.0266,-0.0146,46.4197,2,16.323,15:45:39:135
0.0068,-0.0075,0.0358,46.4203,2,27.477,15:45:40:136
0.021,0.0059,0.0132,46.5804,2,18.716,15:45:41:134
0.0278,-0.0249,0.0398,46.4236,2,20.667,15:45:42:135
-0.0038,0.0108,0.024,46.8446,2,15.713,15:45:43:134
0.0046,-0.0238,0.0441,47.5854,2,19.293,15:45:44:134
-0.0089,0.005,0.0104,46.8409,2,15.819,15:45:45:135
-0.0011,-0.046,-0.021,47,2,18.492,15:45:46:135
-0.0057,0.0225,0.0101,47.1639,2,16.394,15:45:47:135
-0.0148,0.0071,0.0545,46.5668,2,17.738,15:45:48:134
0.0059,0.0267,-0.0274,46,2,27.05,15:45:49:134
0.009,0.0055,-0.0368,46.5778,2,40.211,15:45:50:134
-0.0457,-0.0528,0.0068,46.4307,2,20.753,15:45:51:134
-0.0078,-0.0804,-0.1211,46.4302,2,69.712,15:45:52:134
-0.0273,-0.0653,0.0028,46.1433,2,52.227,15:45:53:134
-0.0369,0.0972,0.0627,46.5721,2,37.683,15:45:54:134
-0.0088,-0.0207,-0.0674,46,2,53.232,15:45:55:134
0.0204,0.003,0.0105,47.2281,2,44.332,15:45:56:134
-0.0051,0.0598,0.0175,46.4227,2,25.837,15:45:57:134
-0.0088,0.0216,-0.0611,46.86,2,37.944,15:45:58:134
0.0163,-6.00E-04,0.006,46.571,2,40.888,15:45:59:134
-4.00E-04,0.0105,-0.011,46.4296,2,17.277,15:46:00:134
0.0157,-0.0134,0.0357,46.4198,2,22.655,15:46:01:134
0.039,-0.0099,-0.002,46.5758,2,27.685,15:46:02:134
1.00E-04,0.0042,-0.0076,46.4277,2,43.501,15:46:03:133
0.0049,0.0055,-0.0512,46.4177,2,28.74,15:46:04:134
0.0191,0.0098,0.0313,46.5789,2,35.169,15:46:05:135
0.012,0.0163,0.0046,46.4194,2,27.783,15:46:06:134
0.0065,-0.0045,0.0044,46.856,2,22.743,15:46:07:133
0.0091,-0.0242,-0.0434,47,2,29.291,15:46:08:134
-0.006,-0.0181,0.0298,46.4252,2,25.714,15:46:09:134
0.0066,-0.0026,0.0421,47.1592,2,31.337,15:46:10:135
0.0295,-0.0615,-0.0135,47,2,45.403,15:46:11:134
-0.0171,-0.0128,0.0154,46.4215,2,42.69,15:46:12:135
-0.002,0.0364,0.0024,46.8383,2,49.912,15:46:13:134
0.0131,0.0378,-0.0711,47,2,46.693,15:46:14:133
0.006,0.0148,0.011,46.5782,2,46.045,15:46:15:133
-0.0121,-0.0049,-0.0113,46.5669,2,51.895,15:46:16:134
0.1475,-0.021,0.0489,43,2,45.785,15:46:17:133
-1.2431,0.9387,2.374,14.2636,2,51.532,15:46:18:134
-1.635,-0.0845,-2.1944,8,2,48.492,15:46:19:133
-0.733,-0.0052,0.2509,6,2,39.683,15:46:20:133
