LINEAR ACCELERATION X,LINEAR ACCELERATION Y,LINEAR ACCELERATION Z,LIGHT (lux),PROXIMITY (m),ATMOSPHERIC PRESSURE (hPa),TEMPERATURE (C),SOUND LEVEL (dB),Time since start in ms ,YYYY-MO-DD HH-MI-SS_SSS
0.0319,-0.0012,-0.0606,48.95,5,1015,28.9,37.848,3,17:55:52:877
-0.004,0.0152,0.0432,48.95,5,1015.07,28.9,51.085,1003,17:55:53:877
-0.0302,-0.0155,0.0229,48.95,5,1015.06,28.9,38.033,2003,17:55:54:877
0.0208,0.0158,0.0281,48.95,5,1015.01,28.9,37.207,3003,17:55:55:877
0.0225,0.0248,-0.0303,48.95,5,1015,28.9,37.647,4004,17:55:56:878
-0.0463,0.0121,0.0318,48.95,5,1014.99,28.9,36.6,5003,17:55:57:877
-0.0062,0.0996,-0.0539,48.95,5,1015.13,28.9,36.269,6003,17:55:58:877
0.0296,0.0215,-0.0358,48.95,5,1015.09,29,37.603,7003,17:55:59:877
-0.0208,0.0073,-0.0163,48.95,5,1015.03,29,36.819,8004,17:56:00:878
-0.0443,-0.0046,0.0624,48.95,5,1015,29,37.926,9004,17:56:01:878
-0.0102,0.0025,0.0163,48.95,5,1014.99,29,37.214,10004,17:56:02:878
-0.0349,-0.0105,0.0127,48.95,5,1015.02,29,37.862,11003,17:56:03:877
-0.0142,-0.0428,0.0506,48.95,5,1014.97,29,47.611,12004,17:56:04:878
-0.0335,0.0351,-0.0026,48.95,5,1014.95,29,44.54,13004,17:56:05:878
0.0064,-0.0052,-0.0669,48.95,5,1014.95,29,49.351,14004,17:56:06:878
-0.044,0.0269,0.0252,48.95,5,1014.95,28.9,44.65,15004,17:56:07:878
-0.015,0.0029,-0.0446,48.95,5,1014.95,28.9,57.372,16004,17:56:08:878
0.001,-0.0282,-0.0432,48.95,5,1015.03,28.9,41.922,17004,17:56:09:878
-0.0625,0.042,0.0234,48.95,5,1015.06,29,40.781,18003,17:56:10:877
0.017,0.0109,0.0875,48.95,5,1015.14,29,58.878,19003,17:56:11:877
-0.0209,0.0373,0.0392,48.95,5,1015.15,29,48.623,20004,17:56:12:878
0.0119,-0.0207,0.0348,48.95,5,1015.09,29,41.928,21004,17:56:13:878
-0.0477,-7.00E-04,0.0043,48.95,5,1015.05,29,38.644,22003,17:56:14:877
0.1043,-0.0524,-0.0712,48.95,5,1014.99,29,39.217,23004,17:56:15:878
0.0308,-0.042,0.0796,38.48,5,1014.97,29,37.09,24003,17:56:16:877
-0.0026,0.0303,-0.016,42.73,5,1014.98,29,38.45,25004,17:56:17:878
-0.0506,-0.0107,0.0546,37.63,5,1014.97,29,38.538,26004,17:56:18:878
0.0104,0.1008,0.0039,41.6,5,1014.96,29,36.919,27004,17:56:19:878
0.048,0.0509,0.0443,41.6,5,1014.97,29,38.293,28003,17:56:20:877
0.0532,0.0253,-0.0032,41.6,5,1014.96,29,38.784,29004,17:56:21:878
0.0589,0.011,-0.0313,41.6,5,1014.96,29,36.576,30003,17:56:22:877
-6.00E-04,-0.026,0.0484,45.84,5,1015.2,29,36.772,31003,17:56:23:877
-0.02,4.00E-04,-0.0557,45.84,5,1015.51,29,36.025,32004,17:56:24:878
-0.0112,0.0359,-0.0035,45.84,5,1015.47,29.1,36.529,33003,17:56:25:877
0.0132,0.0015,0.0285,45.84,5,1015.42,29.1,36.045,34003,17:56:26:877
0.0165,-0.0109,0.0495,45.84,5,1015.33,29.1,35.487,35004,17:56:27:878
-0.0423,-0.0406,-0.0707,45.84,5,1015.36,29.1,37.413,36004,17:56:28:878
0.0124,-0.0197,0.0077,45.84,5,1015.32,29.2,35.688,37003,17:56:29:877
-0.0163,-0.0195,0.0632,45.84,5,1015.28,29.2,36.106,38003,17:56:30:877
0.0459,0.0078,0.0351,45.84,5,1015.32,29.2,36.64,39003,17:56:31:877
-0.0038,0.0295,-0.0105,45.84,5,1015.37,29.2,36.928,40004,17:56:32:878
-0.0202,-0.0326,-0.0194,45.84,5,1015.34,29.3,36.037,41003,17:56:33:877
-0.0133,-0.0207,0.0426,45.84,5,1015.34,29.3,42.312,42004,17:56:34:878
-5.00E-04,-0.023,0.016,45.84,5,1015.34,29.3,39.287,43004,17:56:35:878
-0.005,0.0124,0.0139,45.84,5,1015.26,29.3,40.947,44004,17:56:36:878
0.0325,-0.0128,-0.0833,45.84,5,1015.22,29.4,37.416,45004,17:56:37:878
-0.0124,-0.0261,0.0035,45.84,5,1015.25,29.4,42.033,46003,17:56:38:877
0.0335,-0.02,0.0185,45.84,5,1015.29,29.4,42.382,47003,17:56:39:877
-0.0068,0.0238,0.0191,45.84,5,1015.25,29.4,36.638,48004,17:56:40:878
0.0084,0.0663,0.0403,45.84,5,1015.19,29.5,36.938,49004,17:56:41:878
0.0292,-0.0329,-0.0068,45.84,5,1015.2,29.5,38.001,50003,17:56:42:877
0.0116,-0.0034,-0.0553,45.84,5,1015.23,29.5,37.591,51004,17:56:43:878
0.0353,0.0118,-0.0078,45.84,5,1015.15,29.5,37.595,52004,17:56:44:878
0.002,0.0174,-0.0261,45.84,5,1015.14,29.5,35.927,53004,17:56:45:878
0.0348,0.0177,0.095,45.84,5,1015.11,29.5,42.141,54003,17:56:46:877
0.0234,0.0129,-0.0299,45.84,5,1015.07,29.5,39.709,55004,17:56:47:878
0.0141,0.0053,0.0301,45.84,5,1015.07,29.5,42.932,56003,17:56:48:877
-0.0734,-0.008,-0.0213,45.84,5,1015.08,29.5,51.734,57003,17:56:49:877
-0.0464,0.0184,0.0201,45.84,5,1015.07,29.6,49.999,58003,17:56:50:877
0.0348,-0.0421,-7.00E-04,45.84,5,1015.08,29.6,43.299,59004,17:56:51:878
0.0671,0.0293,3.00E-04,45.84,5,1015.11,29.6,43.592,60003,17:56:52:877
-0.0516,-0.0064,0.0616,45.84,5,1015.11,29.6,47.553,61004,17:56:53:878
-0.0073,-0.0273,-0.0204,45.84,5,1015.13,29.6,48.421,62004,17:56:54:878
0.0392,-0.0012,0.01,45.84,5,1015.23,29.6,50.945,63003,17:56:55:877
-0.0052,0.0197,-0.0356,45.84,5,1015.23,29.6,53.46,64005,17:56:56:879
0.0313,0.0013,-0.0075,45.84,5,1015.25,29.6,56.159,65004,17:56:57:878
0.0346,0.0097,-0.0132,45.84,5,1015.21,29.6,39.797,66003,17:56:58:877
-0.0591,0.035,-0.0329,45.84,5,1015.21,29.6,37.905,67004,17:56:59:878
-0.016,0.0437,0.0502,45.84,5,1015.3,29.7,38.845,68004,17:57:00:878
-0.0077,-0.0209,0.0941,45.84,5,1015.25,29.7,42.213,69003,17:57:01:877
-0.0374,-0.0043,0.0508,45.84,5,1015.24,29.7,48.444,70003,17:57:02:877
-0.0078,-0.0021,0.0017,45.84,5,1015.4,29.7,57.042,71003,17:57:03:877
0.0161,0.0016,0.0143,45.84,5,1015.88,29.7,56.015,72004,17:57:04:878
-0.0247,-0.0226,0.0068,45.84,5,1016.25,29.8,54.743,73003,17:57:05:877
0.0182,-0.0044,0.0366,45.84,5,1016.07,29.9,52.239,74004,17:57:06:878
0.0753,-0.0389,-0.0637,45.84,5,1015.8,30,50.119,75003,17:57:07:877
0.0056,0.0664,0.0384,45.84,5,1015.62,30,53.042,76003,17:57:08:877
0.0357,0,0.0544,45.84,5,1015.54,30.1,49.097,77004,17:57:09:878
0.0306,-0.0392,0.0024,45.84,5,1015.42,30.1,50.994,78005,17:57:10:879
-0.025,-0.0548,0.0935,50.65,5,1015.38,30.1,51.577,79004,17:57:11:878
0.0286,-0.0381,0.0159,50.65,5,1015.39,30.2,49.946,80004,17:57:12:878
-0.0172,0.0244,-0.0118,50.65,5,1015.29,30.2,49.864,81004,17:57:13:878
-0.0263,0.0387,0.0108,50.65,5,1015.25,30.2,49.132,82003,17:57:14:877
-0.0319,-0.0137,-0.1195,50.65,5,1015.17,30.2,53.263,83003,17:57:15:877
0.0183,-0.0162,0.0299,50.65,5,1015.06,30.2,56.666,84003,17:57:16:877
0.0405,-0.0262,0.0847,50.65,5,1015.04,30.2,55.467,85003,17:57:17:877
0.0248,0.0587,-0.0387,50.65,5,1015.02,30.2,50.25,86004,17:57:18:878
-0.0059,-0.0333,-0.0248,50.65,5,1015.07,30.2,55.914,87003,17:57:19:877
-0.0262,0.0018,0.0156,50.65,5,1015.09,30.2,52.625,88003,17:57:20:877
0.0134,-0.0282,-0.0046,50.65,5,1015.15,30.2,53.435,89003,17:57:21:877
0.0578,-0.0489,2.00E-04,50.65,5,1015.14,30.2,49.787,90003,17:57:22:877
-0.0108,-0.003,-0.0343,51.5,5,1015.36,30.3,52.672,91004,17:57:23:878
-0.0237,-0.038,0.0206,51.5,5,1015.37,30.3,50.82,92004,17:57:24:878
-0.021,-0.0083,0.035,51.5,5,1015.11,30.3,49.88,93003,17:57:25:877
0.0344,0.0303,-0.0099,51.5,5,1014.78,30.3,55.717,94004,17:57:26:878
0.0285,-0.0059,-0.0401,51.5,5,1014.49,30.3,51.734,95003,17:57:27:877
-0.0042,-0.0037,0.0014,51.5,5,1014.39,30.2,52.66,96004,17:57:28:878
-0.0115,0.0114,0.0055,51.5,5,1014.32,30.2,54.554,97004,17:57:29:878
0.0226,-0.0031,0.0667,51.5,5,1014.25,30.1,39.493,98004,17:57:30:878
-0.0209,6.00E-04,0.004,51.5,5,1014.25,30.1,36.123,99004,17:57:31:878
0.0142,0.0604,-0.0058,51.5,5,1014.26,30,34.613,100004,17:57:32:878
-0.0617,-0.0068,0.0897,51.5,5,1014.25,29.9,35.103,101004,17:57:33:878
-0.0186,-0.0273,-0.0415,51.5,5,1014.22,29.9,35.253,102004,17:57:34:878
0.0027,0.0588,0.0348,51.5,5,1014.22,29.8,60.918,103004,17:57:35:878
0.0193,0.0082,-0.0193,51.5,5,1014.21,29.8,59.532,104004,17:57:36:878
-0.0477,0.05,-0.006,51.5,5,1014.23,29.7,53.381,105004,17:57:37:878
0.0317,0.0348,0.0672,51.5,5,1014.23,29.7,51.711,106004,17:57:38:878
-0.0409,-0.0277,0.0602,51.5,5,1014.28,29.6,49.316,107003,17:57:39:877
0.0344,-0.0139,-0.0349,51.5,5,1014.32,29.6,47.191,108004,17:57:40:878
0.0261,-0.0344,-0.0545,51.5,5,1014.33,29.5,49.685,109004,17:57:41:878
0.0111,-0.0369,-0.1114,51.5,5,1014.35,29.5,44.86,110004,17:57:42:878
-0.0158,-0.0265,-0.0192,51.5,5,1014.37,29.4,43.126,111004,17:57:43:878
0.0044,0.0089,0.0424,51.5,5,1014.4,29.4,45.582,112003,17:57:44:877
-0.0313,0.0105,-0.0593,51.5,5,1014.39,29.4,49.374,113004,17:57:45:878
0.0303,0.0124,-0.0256,51.5,5,1014.44,29.3,40.547,114004,17:57:46:878
0.0574,-0.0233,0.017,51.5,5,1014.5,29.3,45.722,115004,17:57:47:878
0.029,-0.0152,0.0071,51.5,5,1014.49,29.2,37.487,116004,17:57:48:878
-0.0183,-0.0047,0.0051,51.5,5,1014.55,29.2,41.407,117004,17:57:49:878
-0.0145,0.0317,-0.0428,51.5,5,1014.59,29.2,41.78,118003,17:57:50:877
0.0127,-0.0045,0.0772,51.5,5,1014.92,29.2,47.552,119003,17:57:51:877
-0.0639,0.0194,0.0413,51.5,5,1014.96,29.2,45.427,120003,17:57:52:877
0.0181,-0.0138,0.0234,51.5,5,1014.84,29.2,39.586,121004,17:57:53:878
0.0154,0.0183,-0.014,51.5,5,1014.81,29.2,44.919,122003,17:57:54:877
0.0287,-0.0602,0.0776,51.5,5,1014.78,29.2,38.146,123004,17:57:55:878
-0.0243,0.0093,-0.0051,51.5,5,1014.77,29.1,43.379,124004,17:57:56:878
0.0358,-0.0396,-0.0179,51.5,5,1014.73,29.1,49.211,125003,17:57:57:877
-0.0668,-0.0161,0.0245,51.5,5,1014.7,29.1,48.307,126004,17:57:58:878
-0.0219,0.0076,0.0042,51.5,5,1014.67,29.1,43.452,127003,17:57:59:877
-0.048,0.0504,-0.0221,51.5,5,1014.69,29.1,43.737,128004,17:58:00:878
-0.007,-0.0416,-0.0043,51.5,5,1014.69,29,44.218,129003,17:58:01:877
-0.0158,0.0123,0.0244,51.5,5,1014.69,29,38.378,130004,17:58:02:878
0.0221,-0.0612,-0.0971,51.5,5,1014.67,29,42.261,131003,17:58:03:877
0.0186,-0.0409,-0.002,51.5,5,1014.68,29,44.059,132004,17:58:04:878
-0.0035,-0.0206,-0.0228,51.5,5,1014.73,29,48.91,133004,17:58:05:878
0.0884,-0.0014,-0.0123,51.5,5,1014.76,29,40.463,134004,17:58:06:878
0.0077,-0.0276,-0.0073,51.5,5,1014.76,28.9,45.069,135004,17:58:07:878
0.0825,0.0116,-0.0265,51.5,5,1014.76,28.9,42.79,136003,17:58:08:877
-0.0339,0.0124,-0.07,51.5,5,1014.79,28.9,45.226,137004,17:58:09:878
-0.0279,0.001,0.0206,51.5,5,1014.79,28.9,45.268,138004,17:58:10:878
-0.035,0.0238,-0.0019,51.5,5,1014.79,28.9,43.464,139003,17:58:11:877
-0.0497,0.0443,-0.0583,51.5,5,1014.79,28.8,43.512,140004,17:58:12:878
-0.0164,0.0525,0.0392,51.5,5,1014.79,28.8,36.163,141003,17:58:13:877
0.0158,-0.0156,0.0798,51.5,5,1014.8,28.8,41.8,142004,17:58:14:878
-0.0011,0.0099,0.0343,51.5,5,1014.8,28.8,38.902,143004,17:58:15:878
-0.0038,0.0368,-0.0235,51.5,5,1014.82,28.8,35.436,144003,17:58:16:877
-0.0493,0.0106,-0.0738,51.5,5,1014.84,28.8,41.875,145004,17:58:17:878
0.0199,-0.0073,0.0152,51.5,5,1014.82,28.8,35.746,146005,17:58:18:879
-0.0025,-0.011,0.0253,51.5,5,1014.83,28.7,38.359,147004,17:58:19:878
-0.0829,0.0123,-0.051,51.5,5,1014.81,28.7,43.176,148004,17:58:20:878
0.0184,0.0333,-0.0249,51.5,5,1014.82,28.7,41.106,149004,17:58:21:878
-0.0133,-0.0616,0.0014,51.5,5,1014.84,28.7,40.281,150003,17:58:22:877
0.0012,-0.0062,0.0213,51.5,5,1014.82,28.7,38.601,151003,17:58:23:877
0.014,-0.0298,0.0378,51.5,5,1014.81,28.7,41.185,152003,17:58:24:877
-0.0519,0.0044,0.046,51.5,5,1014.82,28.7,40.32,153004,17:58:25:878
-0.0235,-0.0339,-0.065,51.5,5,1014.85,28.7,41.548,154004,17:58:26:878
-0.0063,0.0194,0.0405,51.5,5,1014.83,28.7,37.709,155003,17:58:27:877
-0.0572,0.0303,-0.0993,51.5,5,1014.85,28.6,44.079,156004,17:58:28:878
0.0039,-0.0251,-0.0604,51.5,5,1014.86,28.6,42.998,157003,17:58:29:877
0.0184,-0.0028,-0.0473,51.5,5,1014.9,28.6,45.887,158004,17:58:30:878
-0.0011,0.0077,-0.0058,51.5,5,1014.9,28.6,54.276,159004,17:58:31:878
0.0091,0.0366,-0.0138,51.5,5,1014.9,28.6,44.738,160004,17:58:32:878
0.0047,-0.0451,-0.0314,51.5,5,1014.89,28.6,40.784,161004,17:58:33:878
0.0668,-0.0053,0.0112,51.5,5,1014.91,28.6,54.733,162003,17:58:34:877
0.0611,0.0356,0.0383,51.5,5,1014.91,28.6,52.078,163005,17:58:35:879
0.0063,-0.005,0.0197,51.5,5,1014.92,28.6,47.721,164003,17:58:36:877
0.0082,-0.009,0.059,51.5,5,1014.93,28.6,52.088,165004,17:58:37:878
-0.0245,0.0236,-0.0502,51.5,5,1014.93,28.6,49.687,166004,17:58:38:878
0.0644,-0.0318,-0.0021,51.5,5,1014.92,28.6,54.063,167004,17:58:39:878
0.0272,0.0206,0.0241,51.5,5,1015,28.5,52.871,168003,17:58:40:877
0.0334,-0.0027,0.0228,51.5,5,1015.02,28.5,46.456,169003,17:58:41:877
0.014,-0.0348,0.0414,51.5,5,1014.99,28.5,46.461,170004,17:58:42:878
-0.0071,-0.0196,-0.0331,51.5,5,1015.01,28.5,39.735,171003,17:58:43:877
-0.0223,0.0444,0.0014,51.5,5,1014.95,28.5,44.717,172004,17:58:44:878
-0.06,-7.00E-04,-0.0215,51.5,5,1014.95,28.5,44.499,173004,17:58:45:878
-0.0065,0.0121,0.0055,51.5,5,1014.94,28.5,40.394,174003,17:58:46:877
0.0301,0.0351,-3.00E-04,51.5,5,1014.93,28.5,37.806,175003,17:58:47:877
0.0146,0.0233,0.0324,51.5,5,1014.93,28.5,43.124,176003,17:58:48:877
-0.0265,0.0128,0.0267,51.5,5,1014.91,28.5,54.771,177003,17:58:49:877
0.0116,-0.0372,-0.0379,51.5,5,1014.9,28.5,51.723,178003,17:58:50:877
0.025,-0.0528,0.0091,51.5,5,1014.9,28.5,59.16,179004,17:58:51:878
0.0619,0,-0.0104,51.5,5,1014.91,28.5,53.611,180003,17:58:52:877
0.0323,-0.004,0.0182,51.5,5,1014.87,28.5,50.871,181004,17:58:53:878
-0.0225,0.0082,-0.0183,51.5,5,1014.88,28.5,37.734,182004,17:58:54:878
0.0461,-0.0219,0.0306,51.5,5,1014.86,28.4,37.094,183004,17:58:55:878
-0.0149,0.0141,-0.0042,51.5,5,1014.87,28.4,36.753,184004,17:58:56:878
0.0252,-0.0154,0.0737,51.5,5,1014.88,28.4,37.013,185004,17:58:57:878
-0.0098,0.012,-0.0589,51.5,5,1014.87,28.4,36.369,186004,17:58:58:878
-0.2981,0.5811,-0.05,22.07,5,1014.87,28.4,40.865,187004,17:58:59:878
0.0696,0.0475,0.0721,40.18,5,1014.86,28.4,36.697,188003,17:59:00:877
-0.0075,-0.0073,-0.0246,40.18,5,1014.89,28.4,34.476,189004,17:59:01:878
-0.0617,-0.0057,-0.0764,40.18,5,1014.91,28.4,34.873,190004,17:59:02:878
0.0727,0.0129,0.0968,40.18,5,1014.93,28.4,36.619,191003,17:59:03:877
-0.0363,0.0141,-0.0697,40.18,5,1014.93,28.4,35.532,192003,17:59:04:877
-0.0426,-0.014,0.0095,40.18,5,1014.96,28.4,36.336,193004,17:59:05:878
0.016,-0.0122,0.0395,40.18,5,1014.95,28.4,34.441,194003,17:59:06:877
-0.004,0.0507,0.0661,40.18,5,1014.94,28.4,35.401,195003,17:59:07:877
-0.003,-0.0183,-0.0109,40.18,5,1014.93,28.4,34.695,196004,17:59:08:878
0.0011,0.0206,-0.0205,40.18,5,1014.94,28.4,36.984,197003,17:59:09:877
0.0161,0.0051,-0.003,40.18,5,1014.93,28.4,37.253,198004,17:59:10:878
-0.0132,-0.0261,-0.0491,40.18,5,1014.95,28.4,36.266,199003,17:59:11:877
-0.0172,0.0245,-0.0033,40.18,5,1014.97,28.4,35.358,200004,17:59:12:878
0.029,0.0156,-0.0232,40.18,5,1014.96,28.4,35.683,201004,17:59:13:878
0.0082,-0.0336,-0.0179,40.18,5,1015,28.4,34.452,202003,17:59:14:877
-0.0576,-0.0463,0.0286,40.18,5,1014.98,28.3,34.915,203004,17:59:15:878
-0.056,-0.0254,-0.0127,40.18,5,1015.01,28.3,35.246,204003,17:59:16:877
-0.0465,-0.0294,-0.0796,40.18,5,1015.01,28.3,34.454,205004,17:59:17:878
-0.0078,-0.0139,0.011,40.18,5,1015,28.3,36.524,206004,17:59:18:878
-0.025,0.0681,-0.0237,40.18,5,1014.99,28.3,35.707,207004,17:59:19:878
-0.0046,0.0298,0.0072,40.18,5,1015,28.3,33.95,208003,17:59:20:877
0.0064,-0.0496,-0.0623,40.18,5,1014.98,28.3,36.546,209004,17:59:21:878
-0.0024,-0.0233,0.0026,40.18,5,1014.99,28.3,36.943,210004,17:59:22:878
-0.0274,-0.0276,0.0298,40.18,5,1014.99,28.3,35.683,211004,17:59:23:878
-0.0176,0.046,0.0209,40.18,5,1014.97,28.3,35.075,212003,17:59:24:877
0.04,-0.0281,0.0505,40.18,5,1014.98,28.3,36.273,213004,17:59:25:878
-0.0109,0.0049,0.0819,40.18,5,1014.99,28.3,35.215,214003,17:59:26:877
-0.0163,-0.0043,-0.0477,40.18,5,1015.02,28.3,35.467,215004,17:59:27:878
0.0335,-0.0444,0.0449,40.18,5,1015.04,28.3,34.818,216003,17:59:28:877
-0.0157,0.0413,0.0651,40.18,5,1015.05,28.3,35.794,217004,17:59:29:878
-0.0101,-0.0395,-0.049,40.18,5,1015.06,28.3,37.523,218004,17:59:30:878
-0.0451,0.01,-0.0519,40.18,5,1015.08,28.2,37.123,219004,17:59:31:878
-0.0179,0.0602,0.0205,40.18,5,1015.11,28.2,34.822,220003,17:59:32:877
-8.00E-04,-4.00E-04,0.0052,40.18,5,1015.13,28.2,35.586,221004,17:59:33:878
0.005,-0.0065,0.0084,40.18,5,1015.12,28.2,36.22,222003,17:59:34:877
0.014,-0.0275,-0.0953,40.18,5,1015.09,28.2,35.111,223004,17:59:35:878
-0.0146,-0.003,-0.0174,40.18,5,1015.08,28.2,34.701,224003,17:59:36:877
0.0184,0.0088,0.0345,40.18,5,1015.08,28.2,33.878,225003,17:59:37:877
0.0089,-0.0031,0.0023,40.18,5,1015.05,28.2,33.896,226004,17:59:38:878
-0.0345,0.0133,0.0636,40.18,5,1015.02,28.2,34.422,227004,17:59:39:878
-0.0356,0.0156,0.0181,40.18,5,1015.02,28.2,33.715,228003,17:59:40:877
0.023,1.00E-04,0.0382,40.18,5,1015.03,28.2,33.551,229004,17:59:41:878
-0.0446,0.014,0.0042,40.18,5,1015,28.2,35.095,230003,17:59:42:877
0.0016,-0.003,-0.1005,40.18,5,1015,28.2,35.362,231003,17:59:43:877
-0.0174,0.0116,-0.0349,40.18,5,1014.99,28.2,37.605,232004,17:59:44:878
-0.0188,-0.0211,-0.0567,40.18,5,1015.01,28.2,35.246,233003,17:59:45:877
-0.0052,5.00E-04,0.0814,40.18,5,1015,28.2,35.868,234004,17:59:46:878
-0.018,0.0196,0.0688,40.18,5,1015.03,28.2,36.25,235004,17:59:47:878
9.00E-04,0.0228,0.0391,40.18,5,1015.01,28.2,35.946,236003,17:59:48:877
0.02,-0.0444,0.0511,40.18,5,1015,28.2,36.216,237003,17:59:49:877
-0.0394,0.0112,-0.0564,40.18,5,1015,28.2,36.928,238004,17:59:50:878
0.0068,0.0485,0.0115,40.18,5,1015,28.1,36.042,239003,17:59:51:877
-0.012,0.014,-0.0073,40.18,5,1015,28.1,35.971,240003,17:59:52:877
-0.0342,0.0174,-0.0356,40.18,5,1014.98,28.1,36.667,241004,17:59:53:878
-0.0477,0.0138,-0.0129,40.18,5,1015.15,28.1,34.336,242003,17:59:54:877
-0.0023,-0.0333,0.0101,40.18,5,1015.56,28.2,35.005,243003,17:59:55:877
-0.0654,0.0352,-0.0162,40.18,5,1015.97,28.2,35.857,244003,17:59:56:877
-0.0343,0.0602,0.0433,40.18,5,1016.2,28.3,36.824,245003,17:59:57:877
-0.0102,0.0016,0.0679,40.18,5,1015.89,28.4,37.527,246004,17:59:58:878
0.0472,0.0432,0.0538,40.18,5,1015.59,28.5,34.933,247003,17:59:59:877
-0.0249,0.0111,0.0237,40.18,5,1015.35,28.5,34.617,248004,18:00:00:878
0.0099,0.032,0.0139,40.18,5,1015.16,28.5,36.617,249003,18:00:01:877
-0.0237,0.0208,-0.0633,40.18,5,1015.04,28.5,34.563,250003,18:00:02:877
-0.0157,0.0357,-0.0367,40.18,5,1014.97,28.5,33.129,251003,18:00:03:877
0.0235,-0.032,0.0335,40.18,5,1014.88,28.5,34.468,252004,18:00:04:878
-0.0289,-0.0037,-0.0299,40.18,5,1014.85,28.5,45.535,253004,18:00:05:878
0.043,0.0156,0.0434,40.18,5,1014.8,28.4,44.357,254004,18:00:06:878
-0.0439,0.0226,-0.001,40.18,5,1014.81,28.4,39.867,255003,18:00:07:877
0.0295,0.0374,0.0396,40.18,5,1014.81,28.4,40.092,256003,18:00:08:877
-0.0491,0.0666,0.0189,40.18,5,1014.79,28.4,42.265,257004,18:00:09:878
0.012,0.006,0.0399,40.18,5,1014.81,28.4,37.021,258004,18:00:10:878
-1.00E-04,-0.0224,-0.0229,40.18,5,1014.83,28.4,41.943,259004,18:00:11:878
-0.0418,8.00E-04,-0.0581,40.18,5,1014.86,28.3,41.216,260004,18:00:12:878
-0.0627,0.0311,0.036,40.18,5,1014.87,28.3,43.373,261004,18:00:13:878
-0.0349,0.0132,-0.0543,40.18,5,1014.9,28.3,37.312,262004,18:00:14:878
-0.0345,0.0185,-0.0535,40.18,5,1014.88,28.3,39.399,263004,18:00:15:878
-4.00E-04,-0.0186,-0.0393,40.18,5,1014.89,28.3,41.677,264005,18:00:16:879
0.0144,0.0364,0.0224,40.18,5,1014.89,28.3,45.707,265003,18:00:17:877
0.0167,-0.0049,0.0518,40.18,5,1014.89,28.3,41.499,266004,18:00:18:878
-0.0244,0.0484,0.0192,40.18,5,1014.91,28.3,41.024,267004,18:00:19:878
0.0492,-0.0362,0.0149,40.18,5,1014.91,28.2,47.891,268004,18:00:20:878
0.0257,-0.0312,0.0663,40.18,5,1014.92,28.2,53.141,269004,18:00:21:878
-0.0168,-0.0411,0.0844,40.18,5,1014.91,28.2,49.358,270004,18:00:22:878
-0.0034,0.0333,0.0284,40.18,5,1014.93,28.2,51.824,271004,18:00:23:878
-0.0711,0.0048,-0.0356,40.18,5,1014.88,28.2,52.36,272004,18:00:24:878
-0.0205,0.0395,0.0118,40.18,5,1014.91,28.2,53.108,273004,18:00:25:878
0.0732,-0.003,0.0062,40.18,5,1014.92,28.2,53.893,274003,18:00:26:877
0.0017,-0.0562,-0.045,40.18,5,1014.91,28.2,50.672,275004,18:00:27:878
0.0932,0.0132,-0.0169,40.18,5,1014.9,28.2,49.129,276003,18:00:28:877
-0.0237,-0.0168,-0.0772,40.18,5,1014.93,28.2,51.009,277003,18:00:29:877
-0.0072,0.0079,0.058,40.18,5,1014.89,28.1,52.858,278004,18:00:30:878
-0.0518,0.0296,-0.055,40.18,5,1014.9,28.1,52.449,279003,18:00:31:877
0.0247,-0.0245,-0.0525,40.18,5,1014.94,28.1,50.026,280004,18:00:32:878
0.0553,0.0195,-0.0071,40.18,5,1014.94,28.1,43.755,281004,18:00:33:878
-0.0494,-0.039,-0.059,40.18,5,1014.97,28.1,47.674,282004,18:00:34:878
-0.0087,0.0319,0.0012,40.18,5,1014.99,28.1,49.307,283004,18:00:35:878
-0.0086,-0.0548,-0.0221,40.18,5,1014.99,28.1,46.402,284003,18:00:36:877
0.0175,0.004,-0.0402,40.18,5,1014.97,28.1,49.286,285004,18:00:37:878
0.0698,-0.0614,-0.002,40.18,5,1015.02,28.1,52.957,286004,18:00:38:878
-0.0445,0.0011,0.026,40.18,5,1015.16,28.1,48.351,287003,18:00:39:877
0.0289,-0.0452,-0.0206,40.18,5,1015.16,28.1,51.948,288004,18:00:40:878
-0.002,0.0356,-0.0015,40.18,5,1015.14,28.1,49.644,289004,18:00:41:878
0.0266,0.0274,0.0242,40.18,5,1015.1,28.1,52.31,290003,18:00:42:877
0.02,0.0039,0.0755,40.18,5,1015.07,28.1,48.239,291003,18:00:43:877
-0.0062,0.0196,0.0113,40.18,5,1015.05,28.1,51.633,292004,18:00:44:878
0.0094,0.0064,-0.0623,40.18,5,1015.02,28.1,49.036,293004,18:00:45:878
-0.0291,0.0128,0.0015,40.18,5,1015.01,28.1,50.308,294004,18:00:46:878
0.0437,0.012,0.0565,40.18,5,1014.99,28.1,50.101,295003,18:00:47:877
-0.0025,0.0081,0.011,40.18,5,1014.99,28.1,51.68,296003,18:00:48:877
-0.0242,4.00E-04,0.0299,40.18,5,1014.99,28.1,53.519,297004,18:00:49:878
0.0115,-0.016,0.0313,40.18,5,1015,28.1,54.308,298004,18:00:50:878
0.0193,0.0162,-0.02,40.18,5,1015,28.1,34.351,299003,18:00:51:877
-0.0237,0.0228,0.0092,40.18,5,1014.98,28.1,34.545,300004,18:00:52:878
-0.0114,-0.0344,-0.0224,40.18,5,1014.98,28.1,34.9,301004,18:00:53:878
-0.0202,-0.0085,-0.0261,40.18,5,1015,28.1,34.783,302003,18:00:54:877
0.0356,-0.0286,-0.0331,40.18,5,1015.02,28,35.237,303004,18:00:55:878
-0.0048,0.0365,-0.0429,40.18,5,1015.03,28,36.652,304003,18:00:56:877
-0.0073,0.0098,-0.0156,40.18,5,1015.04,28,45.666,305004,18:00:57:878
-0.0274,0.0134,-0.0108,40.18,5,1015.08,28,35.634,306004,18:00:58:878
0.0184,-0.0328,-0.0508,40.18,5,1015.1,28,36.502,307004,18:00:59:878
0.0535,-0.0369,-0.028,40.18,5,1015.11,28,46.13,308004,18:01:00:878
-0.0246,0.0295,-0.0223,40.18,5,1015.11,28,45.497,309004,18:01:01:878
-0.0214,-0.022,0.0016,40.18,5,1015.12,28,44.222,310004,18:01:02:878
-0.0109,-0.0557,-0.0667,40.18,5,1015.1,28,38.299,311003,18:01:03:877
-0.0019,-0.026,-0.0934,40.18,5,1015.14,28,35.12,312004,18:01:04:878
-0.0286,0.0091,-0.0027,40.18,5,1015.14,28,41.022,313003,18:01:05:877
0.011,0.0401,0.0028,40.18,5,1015.12,28,46.834,314004,18:01:06:878
0.0258,-0.0117,0.0218,40.18,5,1015.13,28,34.543,315004,18:01:07:878
-0.0319,-0.0269,-0.063,40.18,5,1015.13,28,44.486,316003,18:01:08:877
0.006,0.0318,-0.0089,40.18,5,1015.16,28,41.307,317004,18:01:09:878
0.0382,0.0212,0.0951,14.43,5,1015.14,28,34.968,318004,18:01:10:878
-0.0247,0.0248,-0.0209,39.9,5,1015.14,28,42.628,319003,18:01:11:877
0.0105,-0.0028,-0.0086,39.9,5,1015.15,28,35.934,320004,18:01:12:878
-0.0025,-0.009,0.0525,39.9,5,1015.13,28,35.54,321004,18:01:13:878
0.0052,-0.0204,-0.0078,39.9,5,1015.09,28,33.652,322004,18:01:14:878
0.0082,0.0691,0.0131,39.9,5,1015.07,28,34.449,323004,18:01:15:878
-0.0329,-0.028,0.0238,39.9,5,1015.04,28,35.591,324004,18:01:16:878
0.029,-0.0341,-0.0269,39.9,5,1015.05,28,35.624,325003,18:01:17:877
-0.0336,0.0489,0.0166,39.9,5,1015.05,28,35.791,326004,18:01:18:878
0.0467,-0.0051,-0.0138,39.9,5,1015.04,28,36.121,327003,18:01:19:877
-0.0122,-0.0039,0.0899,39.9,5,1015.02,28,36.02,328003,18:01:20:877
0.0062,0.0354,-0.0361,39.9,5,1015.04,28,39.27,329003,18:01:21:877
0.0086,0.0211,0.0183,39.9,5,1015.01,28,34.85,330003,18:01:22:877
-0.0229,0.0407,-0.0106,39.9,5,1015.01,28,35.485,331004,18:01:23:878
0.0333,0.0151,-0.0255,39.9,5,1015,28,33.793,332003,18:01:24:877
-0.0064,-0.0417,-0.009,39.9,5,1014.98,28,34.259,333004,18:01:25:878
0.0169,0.0112,-0.0033,39.9,5,1014.98,28,35.511,334004,18:01:26:878
-0.0739,-0.0309,-0.0487,39.9,5,1014.98,28,33.653,335003,18:01:27:877
0.0092,0.0241,-0.0988,39.9,5,1014.98,28,33.529,336004,18:01:28:878
0.0579,-0.0596,0.0013,39.9,5,1014.95,28,39.286,337004,18:01:29:878
0.0304,-0.0111,0.0708,39.9,5,1014.96,28,35.436,338004,18:01:30:878
0.0443,-0.0274,-0.0257,39.9,5,1014.95,28,33.492,339004,18:01:31:878
0.0057,-0.0069,0.0095,39.9,5,1014.97,28,35.673,340003,18:01:32:877
-0.0076,-0.012,0.0465,39.9,5,1014.98,27.9,34.931,341003,18:01:33:877
0.0093,-0.0047,-0.0067,39.9,5,1014.97,27.9,38.771,342004,18:01:34:878
-0.0687,-0.0422,-0.005,39.9,5,1014.98,27.9,45.182,343004,18:01:35:878
0.0084,0.0101,-0.0265,39.9,5,1015.01,27.9,34.555,344004,18:01:36:878
0.0391,0.0165,-0.0126,39.9,5,1014.99,27.9,34.987,345003,18:01:37:877
0.0344,0.0125,0.0638,39.9,5,1015.01,27.9,36.82,346004,18:01:38:878
0.0144,-0.008,-0.0545,39.9,5,1015.01,27.9,34.883,347003,18:01:39:877
-0.0216,0.0078,-0.0137,39.9,5,1015.03,27.9,35.807,348003,18:01:40:877
-0.0092,-0.0129,0.0336,39.9,5,1015.05,27.9,44.916,349004,18:01:41:878
0.0065,-0.0363,0.0629,39.9,5,1015.06,27.9,35.703,350003,18:01:42:877
-0.0078,-0.0029,0.0276,39.9,5,1015.09,27.9,47.133,351003,18:01:43:877
0.0143,0.042,1.00E-04,39.9,5,1015.08,27.9,35.201,352004,18:01:44:878
0.0489,-0.0333,-0.0278,39.9,5,1015.09,27.9,36.142,353004,18:01:45:878
-0.0042,0.0192,-0.0211,39.9,5,1015.09,27.9,34.023,354003,18:01:46:877
0.0382,-0.014,0.1253,5.94,5,1015.07,27.9,41.282,355004,18:01:47:878
0.0114,-0.0026,0.0132,37.07,5,1015.1,27.9,33.78,356003,18:01:48:877
0.0596,0.0355,-0.0301,37.07,5,1015.07,27.9,34.769,357004,18:01:49:878
-0.0093,-0.022,-0.0209,37.07,5,1015.1,27.9,33.172,358003,18:01:50:877
-0.0467,0.0037,0.0219,37.07,5,1015.09,27.9,43.467,359003,18:01:51:877
-0.0168,-0.0189,7.00E-04,37.07,5,1015.11,27.9,34.962,360003,18:01:52:877
-0.0348,-0.043,0.022,37.07,5,1015.35,27.9,32.155,361003,18:01:53:877
0.009,0.0235,0.0991,37.07,5,1015.27,27.9,32.588,362003,18:01:54:877
0.0107,0.0021,-0.0591,37.07,5,1015.21,28,34.75,363004,18:01:55:878
0.004,-0.0441,-0.0068,37.07,5,1015.17,28,35.045,364003,18:01:56:877
0.0655,-0.003,0.0155,37.07,5,1015.13,27.9,35.124,365004,18:01:57:878
0.0129,0.0119,-0.0235,37.07,5,1015.16,27.9,33.35,366003,18:01:58:877
0.01,0.0199,-0.0012,37.07,5,1015.12,28,34.421,367004,18:01:59:878
-0.0136,0.0267,0.018,37.07,5,1015.09,27.9,33.343,368003,18:02:00:877
-0.0272,0.0229,-0.0076,37.07,5,1015.06,27.9,33.555,369004,18:02:01:878
0.0062,-0.0188,0.0052,37.07,5,1015.04,27.9,39.734,370003,18:02:02:877
-0.016,-0.0267,0.0055,37.07,5,1015.04,27.9,34.822,371003,18:02:03:877
0.0092,-0.0236,-0.0484,37.07,5,1015.01,27.9,35.716,372003,18:02:04:877
-0.0106,0.0039,0.0331,37.07,5,1015.01,27.9,33.824,373004,18:02:05:878
0.0498,-0.0173,0.0112,37.07,5,1015.08,27.9,34.956,374004,18:02:06:878
-0.0464,-0.0058,-0.0353,37.07,5,1015.08,27.9,36.118,375003,18:02:07:877
-0.0063,-0.0274,-0.0673,37.07,5,1015.06,27.9,40.237,376004,18:02:08:878
-0.0511,-0.0097,-0.0101,37.07,5,1015.06,27.9,34.322,377004,18:02:09:878
0.0263,-0.0167,-0.0548,37.07,5,1015.04,27.9,35.622,378005,18:02:10:879
-0.0023,-0.0324,0.1301,37.07,5,1015.05,27.9,41.009,379004,18:02:11:878
-0.0455,-0.0237,0.0447,37.07,5,1015.04,27.9,45.023,380004,18:02:12:878
-0.0265,-0.0272,-0.0084,37.07,5,1015.06,27.9,41.812,381004,18:02:13:878
-0.0318,-0.0052,-0.016,37.07,5,1015.04,27.9,41.907,382004,18:02:14:878
0.0064,0.02,-0.1535,37.07,5,1015.03,27.9,44.598,383004,18:02:15:878
-0.0284,0.001,0.0786,37.07,5,1015.02,27.9,35.085,384004,18:02:16:878
-0.0469,0.0014,0.029,37.07,5,1015.01,27.9,44.656,385004,18:02:17:878
-0.023,0.001,-0.0212,37.07,5,1015.01,27.9,42.277,386004,18:02:18:878
0.0059,0.0052,-0.0259,37.07,5,1015.04,27.9,45.557,387003,18:02:19:877
-0.0319,-0.0113,-0.0499,37.07,5,1015.03,27.9,43.309,388004,18:02:20:878
-0.0506,0.0094,-0.011,37.07,5,1015.03,27.9,36.222,389003,18:02:21:877
-0.0179,0.0256,-0.0098,37.07,5,1015.04,27.9,34.205,390004,18:02:22:878
-0.0303,-0.0169,0.0671,37.07,5,1015.05,27.9,34.088,391003,18:02:23:877
-0.0036,0.0472,-0.0366,37.07,5,1015.06,27.9,34.642,392004,18:02:24:878
-0.0512,-0.0054,-0.0382,37.07,5,1015.05,27.9,38.218,393004,18:02:25:878
-0.039,0.0277,0.0418,37.07,5,1015.06,27.9,35.06,394004,18:02:26:878
-0.0432,0.007,-0.0521,15.84,5,1015.08,27.9,42.524,395004,18:02:27:878
-0.0227,0.0208,-2.00E-04,15.84,5,1015.05,27.9,34.784,396004,18:02:28:878
-0.0064,0.071,0.0379,8.2,5,1015.05,27.9,34.903,397004,18:02:29:878
-0.0418,-0.0161,0.0181,33.39,5,1015.05,27.9,53.55,398003,18:02:30:877
0.0563,0.0013,0.019,33.39,5,1015.14,27.9,41.449,399004,18:02:31:878
0.0212,-0.0374,-0.0021,39.05,5,1015.13,27.9,33.941,400004,18:02:32:878
0.0043,-0.0201,0.0229,39.05,5,1015.12,27.9,38.321,401004,18:02:33:878
-0.0292,0.0172,0.0274,34.8,5,1015.1,27.9,38.667,402005,18:02:34:879
-0.006,-0.0294,-0.0267,34.8,5,1015.1,27.9,34.7,403003,18:02:35:877
0.0077,-0.0015,0.057,34.8,5,1015.1,27.9,41.049,404004,18:02:36:878
-0.0094,-0.0218,0.018,34.8,5,1015.09,27.9,34.982,405004,18:02:37:878
-0.0571,-0.0102,0.007,34.8,5,1015.1,27.9,38.603,406003,18:02:38:877
0.0203,0.0414,0.0529,34.8,5,1015.08,27.9,42.196,407004,18:02:39:878
-0.0222,-0.0053,-0.0479,21.5,5,1015.07,27.9,37.059,408004,18:02:40:878
0.0121,-0.0165,0.0875,27.16,5,1015.1,27.9,36.178,409004,18:02:41:878
0.0391,-0.0091,0.0203,31.41,5,1015.1,27.9,34.624,410004,18:02:42:878
0.0389,0.0138,0.0653,5.09,5,1015.11,27.9,35.473,411004,18:02:43:878
-0.0063,-0.0436,0.0644,13.58,5,1015.12,27.9,36.392,412003,18:02:44:877
0.0172,-0.0063,-0.014,13.58,5,1015.11,27.8,33.68,413004,18:02:45:878
0.0113,-0.0383,-0.0684,13.58,5,1015.13,27.8,33.124,414004,18:02:46:878
-0.0337,0.0195,-0.0656,13.58,5,1015.18,27.8,34.955,415004,18:02:47:878
-0.0605,-0.0286,0.0935,13.58,5,1015.16,27.8,34.653,416003,18:02:48:877
0.0299,-0.0209,-0.018,13.58,5,1015.14,27.8,32.89,417004,18:02:49:878
0.0269,0.0195,0.0386,13.58,5,1015.19,27.8,34.38,418003,18:02:50:877
0.0174,-0.046,-0.0457,13.58,5,1015.19,27.8,33.839,419003,18:02:51:877
-0.0094,0.0099,-0.0106,13.58,5,1015.17,27.8,41.607,420004,18:02:52:878
-0.0261,0.0015,4.00E-04,13.58,5,1015.2,27.8,34.414,421003,18:02:53:877
0.0171,0.0053,-0.0602,13.58,5,1015.16,27.8,35.773,422003,18:02:54:877
0.0704,-0.0206,-0.0055,13.58,5,1015.16,27.8,36.511,423004,18:02:55:878
-0.0438,-0.021,0.0422,13.58,5,1015.18,27.8,39.659,424003,18:02:56:877
0.0176,0.017,-0.0451,13.58,5,1015.14,27.8,36.248,425004,18:02:57:878
-0.0447,-0.0328,-0.0195,13.58,5,1015.11,27.8,39.061,426004,18:02:58:878
-0.023,0.0771,-0.0334,13.58,5,1015.09,27.8,35.094,427003,18:02:59:877
-0.0355,0.0248,0.0227,13.58,5,1015.08,27.8,35.41,428003,18:03:00:877
-0.0168,0.0072,-0.0274,13.58,5,1015.05,27.8,34.13,429004,18:03:01:878
-0.0267,-0.023,-0.0397,13.58,5,1015.04,27.8,35.422,430003,18:03:02:877
-0.0276,-0.0035,-0.0294,13.58,5,1015.04,27.8,51.075,431004,18:03:03:878
-0.0121,-0.0422,0.0041,13.58,5,1015.05,27.8,52.502,432004,18:03:04:878
0.0622,-0.0107,0.0326,13.58,5,1015.03,27.8,54.174,433003,18:03:05:877
-0.0171,-0.0105,-0.0182,13.58,5,1015.04,27.8,49.384,434004,18:03:06:878
-0.002,0.0011,0.0155,13.58,5,1015.06,27.8,66.181,435004,18:03:07:878
0.0331,-0.032,0.0409,13.58,5,1015.07,27.8,54.396,436004,18:03:08:878
0.0772,-0.014,-0.0262,13.58,5,1015.42,27.8,48.513,437004,18:03:09:878
0.0153,0.0452,0.026,13.58,5,1015.66,27.8,56.247,438004,18:03:10:878
0.0631,-0.0494,-0.1522,13.58,5,1015.56,27.9,45.503,439004,18:03:11:878
0.0217,-0.0233,0.028,13.58,5,1015.4,27.9,51,440004,18:03:12:878
0.0125,-0.0423,-0.026,13.58,5,1015.28,27.9,46.106,441004,18:03:13:878
0.0223,-0.0246,-0.0228,13.58,5,1015.24,27.9,47.14,442003,18:03:14:877
-0.024,-0.0515,-0.0329,13.58,5,1015.2,27.9,52.541,443004,18:03:15:878
0.0159,0.0186,-0.01,13.58,5,1015.15,27.9,48.881,444003,18:03:16:877
-0.0472,0.0362,-0.0401,13.58,5,1015.12,27.9,52.879,445004,18:03:17:878
0.0454,-0.0715,-0.0275,13.58,5,1015.07,27.9,51.291,446004,18:03:18:878
0.0127,0.0159,-0.0459,13.58,5,1015.09,27.9,53.613,447004,18:03:19:878
-0.0223,-0.0017,1.00E-04,13.58,5,1015.07,27.9,52.715,448003,18:03:20:877
-0.0043,0.0152,-0.0285,13.58,5,1015.08,27.9,52.793,449003,18:03:21:877
-0.0156,-0.0482,0.0138,13.58,5,1015.09,27.9,51.577,450004,18:03:22:878
0.0224,0.0167,-0.0304,13.58,5,1015.08,27.9,51.443,451003,18:03:23:877
0.0287,0.0156,0.0353,13.58,5,1015.08,27.9,51.483,452004,18:03:24:878
-0.0372,-0.0375,-0.0373,13.58,5,1015.07,27.9,51.195,453003,18:03:25:877
-0.0033,0.0058,-0.0165,13.58,5,1015.05,27.9,50.49,454004,18:03:26:878
0.0344,-0.0325,-0.0319,13.58,5,1015.07,27.9,53.543,455004,18:03:27:878
0.046,0.0373,0.0823,13.58,5,1015.04,27.9,51.295,456003,18:03:28:877
0.0027,0.0266,0.0129,13.58,5,1015.03,27.9,50.685,457003,18:03:29:877
-0.0107,0.0218,-0.017,13.58,5,1015.01,27.9,53.137,458004,18:03:30:878
-0.0478,-0.044,-0.051,13.58,5,1015.02,27.8,55.555,459004,18:03:31:878
0.018,0.0015,-0.0551,13.58,5,1015.02,27.8,50.377,460003,18:03:32:877
-0.0027,-0.0045,0.0189,13.58,5,1015.03,27.8,52.765,461004,18:03:33:878
-0.0404,-0.022,0.072,13.58,5,1015.03,27.8,52.311,462004,18:03:34:878
0.0077,0.0294,-0.0235,13.58,5,1015.07,27.8,54.457,463003,18:03:35:877
0.0032,0.0301,-0.0422,13.58,5,1015.03,27.8,53.867,464004,18:03:36:878
0.0287,-0.0051,-0.1039,13.58,5,1015.06,27.8,50.038,465003,18:03:37:877
-0.0048,0.0415,0.0173,13.58,5,1015.05,27.8,52.496,466004,18:03:38:878
0.0288,0.0804,0.0397,13.58,5,1015.04,27.8,55.117,467004,18:03:39:878
0.0102,-0.0051,0.0304,13.58,5,1015.05,27.8,52.266,468004,18:03:40:878
0.0317,-0.0082,0.0408,13.58,5,1015.06,27.8,53.18,469004,18:03:41:878
-0.01,-0.0047,-0.0237,13.58,5,1015.05,27.8,55.04,470003,18:03:42:877
-0.0132,0.0105,0.0071,13.58,5,1015.04,27.8,51.865,471004,18:03:43:878
0.0388,0.0183,0.0451,13.58,5,1015.01,27.8,54.677,472004,18:03:44:878
-0.017,-0.0567,0.0364,13.58,5,1015.04,27.8,49.635,473003,18:03:45:877
0.0213,0.053,0.0338,13.58,5,1015.06,27.8,53.448,474004,18:03:46:878
-0.0155,-0.0027,-0.0657,13.58,5,1015.06,27.8,52.604,475003,18:03:47:877
0.0348,0.0418,0.0211,13.58,5,1015.04,27.8,53.886,476004,18:03:48:878
-0.0091,0.0195,0.0363,13.58,5,1015.06,27.8,47.354,477004,18:03:49:878
-0.043,0.0118,0.0644,13.58,5,1015.07,27.8,37.718,478004,18:03:50:878
-0.0074,0.0051,-0.0596,13.58,5,1015.09,27.8,45.325,479004,18:03:51:878
-0.0403,0.0224,0.0041,13.58,5,1015.06,27.8,46.021,480004,18:03:52:878
0.0222,-0.0229,-0.0131,13.58,5,1015.09,27.8,50.82,481004,18:03:53:878
0.0136,-0.0522,0.024,13.58,5,1015.08,27.8,50.368,482004,18:03:54:878
0.043,-0.0277,0.0582,13.58,5,1015.11,27.8,50.22,483003,18:03:55:877
-0.0129,0.0483,-0.0458,13.58,5,1015.06,27.8,50.096,484003,18:03:56:877
-0.0214,-0.0423,0.0075,13.58,5,1015.09,27.8,50.766,485003,18:03:57:877
-0.0206,-0.038,-0.0199,13.58,5,1015.11,27.8,51.001,486003,18:03:58:877
0.0297,0.0272,0.0664,13.58,5,1015.11,27.8,50.784,487004,18:03:59:878
0.0748,-0.0107,0.0448,13.58,5,1015.09,27.8,48.996,488004,18:04:00:878
0.0191,-0.0126,-0.0018,13.58,5,1015.13,27.8,52.047,489003,18:04:01:877
0.0306,0.0591,-0.0272,13.58,5,1015.14,27.8,50.443,490003,18:04:02:877
-0.0286,0.0383,0.0107,13.58,5,1015.15,27.8,47.867,491004,18:04:03:878
-0.0373,0.0145,-0.0156,13.58,5,1015.16,27.8,47.5,492004,18:04:04:878
0.0353,-0.0097,-0.0198,13.58,5,1015.17,27.8,53.183,493003,18:04:05:877
0.0137,0.016,-0.0723,13.58,5,1015.19,27.8,47.119,494003,18:04:06:877
-0.0115,-0.0216,-0.0523,13.58,5,1015.17,27.7,51.785,495004,18:04:07:878
-0.0401,0.0117,0.061,13.58,5,1015.19,27.7,51.304,496003,18:04:08:877
0.0025,-0.0248,-0.0558,13.58,5,1015.15,27.7,51.748,497003,18:04:09:877
0.0398,0.027,-0.081,13.58,5,1015.17,27.7,48.939,498004,18:04:10:878
-0.0062,7.00E-04,-0.0112,13.58,5,1015.17,27.7,51.311,499003,18:04:11:877
-0.0484,-0.0296,0.028,13.58,5,1015.17,27.7,51.654,500003,18:04:12:877
-0.0137,0.0461,-0.0034,13.58,5,1015.14,27.7,52.751,501003,18:04:13:877
-0.0174,-0.0017,0.0618,13.58,5,1015.16,27.7,48.791,502004,18:04:14:878
-0.0532,0.0123,-0.0262,13.58,5,1015.16,27.7,50.788,503003,18:04:15:877
-0.0139,0.0545,-0.0476,13.58,5,1015.14,27.7,51.016,504004,18:04:16:878
-0.016,0.0065,-0.0728,13.58,5,1015.15,27.7,51.293,505004,18:04:17:878
0.011,0.0272,0.0519,13.58,5,1015.14,27.7,50.348,506004,18:04:18:878
-0.008,0.0401,-0.0217,13.58,5,1015.16,27.7,52.297,507004,18:04:19:878
0.0024,-0.0285,-0.0225,13.58,5,1015.16,27.7,53.166,508003,18:04:20:877
-0.0223,-0.0081,-0.0361,13.58,5,1015.19,27.7,52.496,509004,18:04:21:878
0.0424,-0.0067,-0.034,13.58,5,1015.19,27.7,49.048,510004,18:04:22:878
0.0116,0.0195,0.0052,13.58,5,1015.16,27.7,44.786,511004,18:04:23:878
-0.0265,-0.0428,-0.0527,13.58,5,1015.16,27.7,48.647,512003,18:04:24:877
-0.0137,-0.0055,0.0544,13.58,5,1015.16,27.7,48.112,513004,18:04:25:878
0.0051,-0.0284,-0.0095,13.58,5,1015.15,27.7,46.469,514003,18:04:26:877
0.0502,-0.0316,0.0271,13.58,5,1015.15,27.7,48.209,515004,18:04:27:878
0.0118,-0.0368,0.0157,13.58,5,1015.14,27.7,46.041,516004,18:04:28:878
0.008,-0.011,0.0239,13.58,5,1015.13,27.7,46.44,517004,18:04:29:878
-0.042,0.0147,-0.0746,13.58,5,1015.13,27.7,51.419,518004,18:04:30:878
0.029,-0.0236,-0.012,13.58,5,1015.16,27.7,47.258,519004,18:04:31:878
-0.0315,0.0294,-0.0225,13.58,5,1015.14,27.7,51.135,520004,18:04:32:878
0.0348,-0.0116,0.0596,13.58,5,1015.14,27.7,51.904,521003,18:04:33:877
0.0203,0.0804,0.022,13.58,5,1015.14,27.7,52.186,522004,18:04:34:878
0.0165,0.0059,0.0625,13.58,5,1015.16,27.7,52.257,523004,18:04:35:878
0,0.0288,-0.0488,13.58,5,1015.16,27.7,54.225,524004,18:04:36:878
0.0116,0.0348,0.0112,13.58,5,1015.16,27.7,45.377,525003,18:04:37:877
-0.0149,0.0183,0.0321,13.58,5,1015.13,27.7,39.512,526004,18:04:38:878
0.0471,-2.00E-04,0.0642,13.58,5,1015.23,27.7,35.396,527004,18:04:39:878
0.0513,-0.0137,0.0119,13.58,5,1015.24,27.7,35.486,528004,18:04:40:878
-0.0415,0.0132,0.0354,13.58,5,1015.22,27.7,36.235,529004,18:04:41:878
0.0117,-0.0034,0.008,13.58,5,1015.2,27.7,34.575,530003,18:04:42:877
-0.0249,0.0236,0.0039,13.58,5,1015.19,27.7,36.633,531004,18:04:43:878
0.0479,-0.0357,-0.0496,13.58,5,1015.18,27.7,37.407,532003,18:04:44:877
-0.0042,-0.0356,-0.0497,13.58,5,1015.18,27.7,34.68,533004,18:04:45:878
-0.0011,-0.0613,-0.0597,13.58,5,1015.18,27.7,35.562,534003,18:04:46:877
-0.0249,-0.0082,0.0173,13.58,5,1015.17,27.7,36.367,535004,18:04:47:878
0.0285,-0.0069,0.0103,13.58,5,1015.16,27.7,36.108,536003,18:04:48:877
-0.0313,5.00E-04,-0.0392,13.58,5,1015.16,27.7,33.973,537003,18:04:49:877
-0.0193,-0.0165,0.0601,13.58,5,1015.15,27.7,33.721,538003,18:04:50:877
0.1134,-0.0457,-0.0214,13.58,5,1015.15,27.7,34.171,539004,18:04:51:878
-0.0636,0.0114,-0.0133,13.58,5,1015.16,27.7,34.335,540004,18:04:52:878
-0.0187,-0.0065,-0.0417,13.58,5,1015.14,27.7,33.396,541003,18:04:53:877
-0.0181,-0.034,-0.0027,13.58,5,1015.16,27.7,34.067,542003,18:04:54:877
0.0323,-0.0318,0.0497,13.58,5,1015.16,27.7,33.493,543004,18:04:55:878
-0.0243,-0.0523,0.0259,13.58,5,1015.18,27.7,32.966,544003,18:04:56:877
0.0216,0.05,0.0343,13.58,5,1015.2,27.7,33.177,545004,18:04:57:878
0.0236,0.04,0.0398,13.58,5,1015.25,27.7,34.967,546003,18:04:58:877
0.0176,0.0123,0.0335,13.58,5,1015.29,27.7,34.611,547004,18:04:59:878
-0.0021,-0.0624,0.0382,13.58,5,1015.28,27.7,34.331,548004,18:05:00:878
-0.018,0.0111,-0.0475,13.58,5,1015.26,27.7,35.294,549004,18:05:01:878
-0.0495,0.0058,0.0136,13.58,5,1015.23,27.7,35.43,550004,18:05:02:878
0.0229,0.0402,0.064,13.58,5,1015.22,27.7,35.331,551003,18:05:03:877
0.0129,-0.03,0.0198,13.58,5,1015.24,27.7,36.679,552003,18:05:04:877
-0.0149,0.0272,-0.0673,13.58,5,1015.21,27.7,34.728,553004,18:05:05:878
0.0348,0.0208,-0.006,13.58,5,1015.21,27.7,35.372,554004,18:05:06:878
-0.0011,0.0523,0.0974,13.58,5,1015.19,27.7,34.801,555003,18:05:07:877
-0.0215,0.0167,-0.0313,13.58,5,1015.17,27.7,36.422,556004,18:05:08:878
-0.0471,-0.0129,0.0111,13.58,5,1015.17,27.7,37.198,557004,18:05:09:878
0.0362,-0.0645,-0.0021,13.58,5,1015.15,27.7,49.472,558003,18:05:10:877
0.017,-0.0123,0.0296,13.58,5,1015.17,27.7,52.515,559004,18:05:11:878
-0.0152,0.0055,0.0316,13.58,5,1015.15,27.7,44.088,560003,18:05:12:877
0.0099,-0.0091,-0.0159,13.58,5,1015.14,27.7,45.108,561004,18:05:13:878
-5.00E-04,-0.024,0.0119,13.58,5,1015.14,27.7,46.697,562004,18:05:14:878
-0.0015,-0.0087,-0.0576,13.58,5,1015.12,27.7,49.387,563003,18:05:15:877
-0.0052,0.0059,0.0048,13.58,5,1015.14,27.7,53.643,564004,18:05:16:878
0.0247,0.0247,0.0239,13.58,5,1015.11,27.7,48.158,565003,18:05:17:877
-0.022,-0.0676,-0.0515,13.58,5,1015.14,27.7,46.361,566004,18:05:18:878
-0.0367,0.0363,-0.0679,13.58,5,1015.14,27.7,48.505,567004,18:05:19:878
-0.002,0.0192,-0.0342,13.58,5,1015.15,27.7,49.486,568003,18:05:20:877
0.034,-0.0332,0.0701,13.58,5,1015.13,27.7,48.138,569004,18:05:21:878
-0.0038,-0.006,-0.0695,13.58,5,1015.16,27.7,45.234,570003,18:05:22:877
-0.0071,-0.0188,-0.0335,13.58,5,1015.15,27.7,43.375,571004,18:05:23:878
-0.0286,-0.0122,-0.0363,13.58,5,1015.17,27.7,49.021,572004,18:05:24:878
-0.0309,0.0243,0.0053,13.58,5,1015.17,27.7,49.142,573003,18:05:25:877
-0.0187,0.0369,-0.015,13.58,5,1015.18,27.7,48.139,574004,18:05:26:878
-0.0046,0.013,3.00E-04,13.58,5,1015.15,27.7,39.949,575004,18:05:27:878
0.0129,0.0262,0.0124,13.58,5,1015.14,27.7,41.214,576003,18:05:28:877
0.0777,0.0144,-0.0442,13.58,5,1015.15,27.7,48.967,577004,18:05:29:878
-0.011,-0.0415,-0.0147,13.58,5,1015.13,27.7,48.637,578003,18:05:30:877
0.0175,-0.0053,0.0488,13.58,5,1015.12,27.7,49.894,579004,18:05:31:878
-0.0304,0.0011,-0.0247,13.58,5,1015.13,27.7,47.45,580003,18:05:32:877
0.0159,0.0432,0.0393,13.58,5,1015.13,27.7,45.638,581003,18:05:33:877
-0.0063,0.0298,-0.0055,13.58,5,1015.15,27.7,47.327,582004,18:05:34:878
0.0373,-0.0511,-0.0267,13.58,5,1015.15,27.7,41.831,583004,18:05:35:878
-0.0079,-0.0408,0.0509,13.58,5,1015.15,27.7,40.346,584003,18:05:36:877
0.0101,0.0164,0.0785,13.58,5,1015.15,27.7,47.694,585004,18:05:37:878
0.0998,-0.0596,0.073,13.58,5,1015.17,27.7,49.4,586003,18:05:38:877
0.0015,-0.0625,-0.0351,13.58,5,1015.12,27.7,44.234,587004,18:05:39:878
-0.0473,0.0322,-0.0367,13.58,5,1015.13,27.7,48.464,588004,18:05:40:878
8.00E-04,-0.0807,0.0177,13.58,5,1015.17,27.7,45.617,589003,18:05:41:877
-4.00E-04,0.0429,0.0944,13.58,5,1015.17,27.7,40.414,590004,18:05:42:878
-0.0495,-0.0336,0.0181,13.58,5,1015.16,27.7,49.11,591004,18:05:43:878
-0.0521,-0.0348,0.0338,13.58,5,1015.16,27.7,44.627,592003,18:05:44:877
-0.0018,-0.01,0.0462,13.58,5,1015.18,27.7,45.787,593004,18:05:45:878
-0.0035,0.0629,0.0335,13.58,5,1015.16,27.7,46.066,594003,18:05:46:877
0.0972,0.0146,0.0957,13.58,5,1015.15,27.7,42.352,595004,18:05:47:878
-0.004,-0.0051,-0.0842,13.58,5,1015.16,27.7,51.964,596004,18:05:48:878
0.0225,0.0156,-0.017,13.58,5,1015.14,27.7,47.699,597004,18:05:49:878
-0.0399,-0.059,-0.042,13.58,5,1015.14,27.7,49.481,598004,18:05:50:878
-0.0594,-0.0405,0.0525,13.58,5,1015.17,27.7,46.48,599003,18:05:51:877
0.0348,0.0185,0.074,13.58,5,1015.19,27.7,45.147,600003,18:05:52:877
-0.0139,-0.0017,-0.0515,13.58,5,1015.19,27.7,45.527,601004,18:05:53:878
-0.0585,0.0358,-0.0321,13.58,5,1015.2,27.7,49.444,602004,18:05:54:878
-2.00E-04,0.0194,0.0371,13.58,5,1015.19,27.7,50.673,603004,18:05:55:878
0.0322,0.0172,-0.0258,13.58,5,1015.18,27.7,49.305,604003,18:05:56:877
0.0161,-0.0056,0.0854,13.58,5,1015.18,27.7,49.167,605003,18:05:57:877
-0.0347,-0.0121,-0.0349,13.58,5,1015.16,27.7,51.5,606004,18:05:58:878
0.0594,-0.0178,-0.0811,13.58,5,1015.16,27.7,46.031,607003,18:05:59:877
0.0547,-0.0216,-0.075,13.58,5,1015.16,27.7,49.559,608004,18:06:00:878
-0.0215,0.0398,0.0159,13.58,5,1015.15,27.7,48.797,609003,18:06:01:877
0.0119,0.0371,-0.0179,13.58,5,1015.15,27.7,33.607,610004,18:06:02:878
0.0301,0.0329,0.0092,13.58,5,1015.16,27.7,33.204,611003,18:06:03:877
0.0015,-0.056,-0.0168,13.58,5,1015.14,27.7,39.655,612003,18:06:04:877
0.0617,0.0118,-0.0784,13.58,5,1015.18,27.7,38.128,613004,18:06:05:878
0.0139,0.0351,-0.0748,13.58,5,1015.18,27.7,45.534,614003,18:06:06:877
-0.0139,-0.0029,-0.0297,13.58,5,1015.16,27.7,38.444,615004,18:06:07:878
0.0475,0.0029,0.034,13.58,5,1015.17,27.7,41.672,616004,18:06:08:878
-0.031,0.027,0.0428,13.58,5,1015.19,27.7,41.713,617004,18:06:09:878
0.0284,-0.015,0.0402,13.58,5,1015.18,27.7,46.403,618004,18:06:10:878
0.0099,-0.007,0.0477,13.58,5,1015.19,27.7,47.739,619004,18:06:11:878
-0.07,-0.0222,0.0273,13.58,5,1015.2,27.7,48.515,620004,18:06:12:878
0.0306,0.0417,0.0399,13.58,5,1015.2,27.7,46.216,621004,18:06:13:878
0.0283,-0.0314,-0.0039,13.58,5,1015.19,27.7,45.435,622004,18:06:14:878
0.0689,-0.0087,0.0116,13.58,5,1015.2,27.7,44.86,623003,18:06:15:877
0.0324,0.0044,0.0029,13.58,5,1015.2,27.7,43.164,624004,18:06:16:878
-0.0266,0.0105,0.0112,13.58,5,1015.17,27.7,41.14,625004,18:06:17:878
-0.0104,-0.0338,0.0232,13.58,5,1015.18,27.7,41.285,626003,18:06:18:877
-0.0216,-0.0553,-0.0114,13.58,5,1015.18,27.7,42.098,627004,18:06:19:878
-0.0208,0.0158,9.00E-04,13.58,5,1015.16,27.7,46.716,628004,18:06:20:878
-0.0031,-0.0553,0.0299,13.58,5,1015.15,27.7,45.438,629004,18:06:21:878
-0.0396,0.0184,-0.0191,13.58,5,1015.14,27.6,49.554,630004,18:06:22:878
-0.0894,-0.0203,-0.0299,13.58,5,1015.13,27.6,35.511,631004,18:06:23:878
0.0615,0.0401,0.0378,13.58,5,1015.13,27.6,44.655,632004,18:06:24:878
-0.0338,0.0341,0.058,13.58,5,1015.13,27.6,51.073,633004,18:06:25:878
-0.0362,0.0146,0.0489,13.58,5,1015.12,27.6,53.909,634003,18:06:26:877
-0.0292,-0.0354,-0.0292,13.58,5,1015.12,27.6,49.978,635004,18:06:27:878
0.0028,0.0246,-0.0115,13.58,5,1015.14,27.6,45.286,636003,18:06:28:877
-0.0341,0.005,-0.0179,13.58,5,1015.14,27.6,49.222,637004,18:06:29:878
0.0016,-0.0147,-0.0231,13.58,5,1015.15,27.6,45.669,638003,18:06:30:877
-0.0158,0.0078,-0.1679,13.58,5,1015.17,27.6,46.924,639003,18:06:31:877
-0.058,-0.0645,0.0154,13.58,5,1015.16,27.6,50.291,640004,18:06:32:878
0.035,0.032,0.0213,13.58,5,1015.17,27.6,46.569,641004,18:06:33:878
0.0229,0.0098,-0.0253,13.58,5,1015.18,27.6,45.139,642004,18:06:34:878
0.073,-0.0081,0.0353,13.58,5,1015.21,27.6,44.387,643004,18:06:35:878
0.012,-7.00E-04,0.0143,13.58,5,1015.2,27.6,44.339,644004,18:06:36:878
0.0233,-0.016,-0.0339,13.58,5,1015.21,27.6,50.444,645003,18:06:37:877
0.0149,-0.0039,-0.0114,13.58,5,1015.23,27.6,48.829,646004,18:06:38:878
-0.0301,0.0201,0.0311,13.58,5,1015.23,27.6,48.683,647004,18:06:39:878
0.0107,-0.0035,-0.0194,13.58,5,1015.23,27.6,47.338,648004,18:06:40:878
-0.0074,0.0031,0.0105,13.58,5,1015.24,27.6,46.747,649004,18:06:41:878
-0.0041,0.0546,0.0158,13.58,5,1015.27,27.6,45.676,650004,18:06:42:878
0.0257,-0.0016,0.1032,13.58,5,1015.25,27.6,48.312,651003,18:06:43:877
0.0056,-0.0547,-0.0055,13.58,5,1015.25,27.6,46.495,652004,18:06:44:878
-0.0472,0.0661,0.0264,13.58,5,1015.28,27.6,47.657,653004,18:06:45:878
-0.0174,0.0264,0.0067,13.58,5,1015.27,27.6,47.23,654004,18:06:46:878
-0.0542,0.0115,-0.0132,13.58,5,1015.27,27.6,49.404,655003,18:06:47:877
-0.0199,-0.0059,0.0305,13.58,5,1015.28,27.6,45.674,656003,18:06:48:877
0.016,0.0549,0.0056,13.58,5,1015.27,27.6,48.136,657004,18:06:49:878
-0.0079,-0.0061,-0.0275,13.58,5,1015.24,27.6,48.105,658004,18:06:50:878
0.0183,-0.0241,0.0254,13.58,5,1015.21,27.6,49.389,659004,18:06:51:878
-0.0343,0.0516,-0.0025,13.58,5,1015.22,27.6,43.852,660004,18:06:52:878
0.0675,-0.0209,0.0176,13.58,5,1015.21,27.6,47.193,661003,18:06:53:877
-0.0145,0.0201,0.0187,13.58,5,1015.23,27.6,48.041,662004,18:06:54:878
0.0024,-0.0065,-0.0313,13.58,5,1015.2,27.6,47.244,663003,18:06:55:877
0.019,-0.0032,0.0239,13.58,5,1015.22,27.6,50.048,664004,18:06:56:878
-0.0336,-0.1208,-0.0867,13.58,5,1015.22,27.6,50.128,665003,18:06:57:877
0.0301,-0.0165,0.0356,13.58,5,1015.23,27.6,48.264,666003,18:06:58:877
-0.0259,0.0076,0.0705,13.58,5,1015.24,27.6,46.69,667003,18:06:59:877
-0.0228,0.0354,0.0529,13.58,5,1015.24,27.6,47.689,668003,18:07:00:877
0.0392,0.0294,0.0093,13.58,5,1015.22,27.6,48.049,669004,18:07:01:878
0.0218,-0.0494,-0.0565,13.58,5,1015.22,27.6,48.096,670003,18:07:02:877
0.0162,-0.0301,-0.0362,13.58,5,1015.22,27.6,46.547,671004,18:07:03:878
-0.0356,-0.0276,-0.0241,13.58,5,1015.2,27.6,46.93,672003,18:07:04:877
-0.0023,-0.0185,-0.0156,13.58,5,1015.2,27.6,50.181,673003,18:07:05:877
0.024,-0.0312,0.0245,13.58,5,1015.18,27.6,49.121,674004,18:07:06:878
0.0253,0.0501,-0.0142,13.58,5,1015.2,27.6,48.592,675004,18:07:07:878
-0.0133,0.0048,-0.0162,13.58,5,1015.18,27.6,46.648,676003,18:07:08:877
-0.032,0.0106,0.0708,13.58,5,1015.19,27.6,46.723,677004,18:07:09:878
-0.0092,0.0248,-0.0762,13.58,5,1015.2,27.6,45.302,678003,18:07:10:877
0.0165,-0.0011,-0.015,13.58,5,1015.19,27.6,48.309,679004,18:07:11:878
0.031,-0.0027,0.0378,13.58,5,1015.2,27.6,45.57,680004,18:07:12:878
-0.0257,0.011,0.0594,13.58,5,1015.22,27.6,45.353,681004,18:07:13:878
-0.0065,0.0312,0.0028,13.58,5,1015.22,27.6,49.475,682003,18:07:14:877
-4.00E-04,-0.0199,-0.0316,13.58,5,1015.24,27.6,48.16,683004,18:07:15:878
0.0049,-0.0429,-0.0407,13.58,5,1015.22,27.6,45.83,684003,18:07:16:877
-0.0584,0.0339,0.0301,13.58,5,1015.21,27.6,45.996,685004,18:07:17:878
-0.0175,-0.0233,0.0317,13.58,5,1015.18,27.6,43.552,686003,18:07:18:877
-0.0442,0.0157,0.0135,13.58,5,1015.16,27.6,48.251,687004,18:07:19:878
-0.0353,-0.0113,0.0634,13.58,5,1015.15,27.6,51.253,688004,18:07:20:878
-0.042,-0.0238,0.0402,13.58,5,1015.11,27.6,46.471,689003,18:07:21:877
-0.069,0.0126,-0.0037,13.58,5,1015.13,27.6,44.215,690003,18:07:22:877
0.0097,-0.0305,-0.0345,13.58,5,1015.1,27.6,46.614,691003,18:07:23:877
-0.0056,-0.0092,-0.0181,13.58,5,1015.09,27.6,49.489,692003,18:07:24:877
-0.0233,0.0339,0.0648,13.58,5,1015.1,27.6,36.618,693004,18:07:25:878
-0.0216,0.0147,-0.0482,13.58,5,1015.13,27.6,45.564,694004,18:07:26:878
-0.0106,0.0576,0.0294,13.58,5,1015.13,27.6,39.802,695005,18:07:27:879
-0.0133,-0.0151,-0.0079,13.58,5,1015.15,27.6,41.419,696003,18:07:28:877
0.0059,0.0212,0.0131,13.58,5,1015.14,27.6,38.351,697004,18:07:29:878
-0.0158,-0.0265,0.0107,13.58,5,1015.13,27.6,35.903,698004,18:07:30:878
0.0202,0.0036,0.0183,13.58,5,1015.24,27.6,39.135,699004,18:07:31:878
0.0703,-0.0222,-0.0359,13.58,5,1015.26,27.6,34.456,700003,18:07:32:877
-0.0165,-0.0235,-0.0172,13.58,5,1015.26,27.6,35.071,701004,18:07:33:878
-0.0149,0.0151,-0.0466,13.58,5,1015.22,27.6,34.116,702004,18:07:34:878
0.0204,-0.0179,-0.0043,13.58,5,1015.22,27.6,33.032,703004,18:07:35:878
0.0219,-0.0295,0.0422,13.58,5,1015.21,27.6,34.541,704004,18:07:36:878
-0.0378,0.029,0.0268,13.58,5,1015.2,27.6,34.093,705004,18:07:37:878
0.028,-0.0163,-0.0372,13.58,5,1015.18,27.6,32.708,706004,18:07:38:878
-0.0249,-0.0081,0.0894,13.58,5,1015.19,27.6,33.525,707004,18:07:39:878
-0.0336,-0.0053,0.0022,13.58,5,1015.19,27.6,37.263,708003,18:07:40:877
0.0099,-0.0437,0.0643,13.58,5,1015.17,27.6,32.923,709004,18:07:41:878
0.0166,-0.0424,-0.0448,13.58,5,1015.2,27.6,35.152,710003,18:07:42:877
0.001,0.0495,0.0017,13.58,5,1015.2,27.6,34.528,711003,18:07:43:877
0.0548,0.0158,-0.0065,13.58,5,1015.18,27.6,32.618,712003,18:07:44:877
0.0015,0.0238,0.0212,13.58,5,1015.18,27.6,33.127,713004,18:07:45:878
-0.0087,-0.008,-0.0251,13.58,5,1015.19,27.6,33.69,714004,18:07:46:878
0.0564,0.0114,-0.1223,13.58,5,1015.18,27.6,33.379,715005,18:07:47:879
0.0351,-0.0252,-0.017,13.58,5,1015.16,27.6,34.678,716004,18:07:48:878
-0.0193,-0.0044,0.0231,13.58,5,1015.17,27.6,32.67,717004,18:07:49:878
-0.0271,0.0296,0.0081,13.58,5,1015.16,27.6,36.153,718004,18:07:50:878
0.0405,0.0529,0.0153,13.58,5,1015.18,27.6,33.022,719004,18:07:51:878
-0.0462,-1.00E-04,-0.0194,13.58,5,1015.18,27.6,38.617,720003,18:07:52:877
0.013,-0.0431,-0.0463,13.58,5,1015.18,27.6,34.421,721004,18:07:53:878
-0.064,-0.0319,-0.0599,13.58,5,1015.18,27.6,36.107,722004,18:07:54:878
0.0282,0.0455,-0.0481,13.58,5,1015.18,27.6,37.786,723004,18:07:55:878
0.0226,-0.0253,-0.0081,13.58,5,1015.19,27.6,38.379,724003,18:07:56:877
-0.021,-0.0128,0.0176,13.58,5,1015.2,27.6,37.865,725004,18:07:57:878
-0.0689,0.0078,0.0129,13.58,5,1015.19,27.6,35.896,726003,18:07:58:877
0.0143,0.0133,-0.0527,13.58,5,1015.22,27.6,38.022,727003,18:07:59:877
-0.0129,-0.0037,0.0754,13.58,5,1015.22,27.6,38.219,728004,18:08:00:878
-0.0026,0.0023,-0.0554,13.58,5,1015.19,27.6,35.056,729003,18:08:01:877
-0.0254,0.0454,0.0505,13.58,5,1015.17,27.6,33.724,730004,18:08:02:878
-0.0086,0.0575,-0.0285,13.58,5,1015.16,27.6,32.895,731004,18:08:03:878
-0.0444,-0.0211,0.0249,13.58,5,1015.16,27.6,33.155,732005,18:08:04:879
0.0078,0.0141,-0.0425,13.58,5,1015.18,27.6,39.088,733003,18:08:05:877
-0.0244,-0.0031,0.0263,13.58,5,1015.17,27.6,37.015,734004,18:08:06:878
-0.0141,0.0333,-0.0213,13.58,5,1015.17,27.6,33.464,735004,18:08:07:878
0.0361,-0.0505,-0.0637,13.58,5,1015.19,27.6,33.854,736003,18:08:08:877
0.0025,0.0299,-0.04,13.58,5,1015.19,27.6,32.946,737004,18:08:09:878
-0.0253,-4.00E-04,-0.0307,13.58,5,1015.19,27.6,31.997,738003,18:08:10:877
0.0192,0.0566,0.0074,13.58,5,1015.19,27.6,34.801,739003,18:08:11:877
0.0671,-0.0275,-0.0278,13.58,5,1015.23,27.6,32.373,740004,18:08:12:878
0.024,-0.0044,0.0115,13.58,5,1015.23,27.6,31.973,741004,18:08:13:878
0.0083,-0.0065,0.0263,13.58,5,1015.21,27.6,32.399,742003,18:08:14:877
-0.0014,-0.0567,0.0188,13.58,5,1015.21,27.6,33.183,743003,18:08:15:877
-0.0012,0.002,0.0428,13.58,5,1015.19,27.6,35.241,744003,18:08:16:877
-0.0035,0.0321,0.0134,13.58,5,1015.21,27.6,34.344,745005,18:08:17:879
0.0392,0.0087,-0.0591,13.58,5,1015.19,27.6,33.449,746004,18:08:18:878
-0.0137,0.0148,-0.099,13.58,5,1015.18,27.6,33.518,747004,18:08:19:878
-0.0054,0.0095,0.044,13.58,5,1015.2,27.6,32.233,748004,18:08:20:878
0.0138,0.0027,0.0591,13.58,5,1015.19,27.6,32.466,749003,18:08:21:877
-0.0332,0.019,-0.0058,13.58,5,1015.21,27.6,33.341,750003,18:08:22:877
-0.0361,0.0236,0.1072,13.58,5,1015.21,27.6,30.702,751004,18:08:23:878
-0.0142,-0.0353,0.0017,13.58,5,1015.21,27.6,31.265,752004,18:08:24:878
0.0534,0.0454,0.0528,13.58,5,1015.2,27.6,37.035,753003,18:08:25:877
-0.064,-0.0185,0.0359,13.58,5,1015.21,27.6,35.411,754004,18:08:26:878
-0.0294,-0.0314,-0.1249,13.58,5,1015.19,27.6,33.638,755003,18:08:27:877
-0.0034,0.0092,-0.0079,13.58,5,1015.19,27.6,33.736,756004,18:08:28:878
0.0368,0.0029,-0.0014,13.58,5,1015.2,27.6,32.655,757003,18:08:29:877
0.0148,-0.0203,0.01,13.58,5,1015.21,27.6,35.63,758003,18:08:30:877
-0.0326,-0.001,0.0068,13.58,5,1015.23,27.6,32.688,759004,18:08:31:878
-0.031,0.0252,0.0641,13.58,5,1015.2,27.6,33.411,760003,18:08:32:877
-0.0047,-0.0014,-0.0472,13.58,5,1015.22,27.6,35.17,761004,18:08:33:878
0.0043,-0.0334,0.0161,13.58,5,1015.22,27.6,35.279,762004,18:08:34:878
-0.0348,0.0263,-0.0072,13.58,5,1015.22,27.6,33.517,763003,18:08:35:877
0.0038,0.0196,0.0748,41.88,5,1015.24,27.6,35.84,764004,18:08:36:878
0.0027,0.0279,0.0051,41.88,5,1015.24,27.6,32.271,765004,18:08:37:878
-0.0649,-0.0451,-0.054,41.88,5,1015.24,27.6,32.654,766003,18:08:38:877
0.0195,0.0208,0.0646,41.88,5,1015.21,27.6,31.729,767004,18:08:39:878
0.0018,-0.016,-0.0549,41.88,5,1015.24,27.6,33.715,768004,18:08:40:878
0.0018,-0.0298,0.0185,41.88,5,1015.23,27.6,34.296,769003,18:08:41:877
-0.0136,-0.0142,-0.0459,41.88,5,1015.24,27.6,33.546,770004,18:08:42:878
-0.0208,-0.0129,-0.0121,41.88,5,1015.22,27.6,33.234,771003,18:08:43:877
-0.0193,0.0259,-0.0512,41.88,5,1015.22,27.6,33.469,772004,18:08:44:878
0.0178,-0.0272,-0.0217,41.88,5,1015.23,27.6,31.642,773004,18:08:45:878
0.0374,-0.0146,-0.0436,41.88,5,1015.21,27.6,33.347,774004,18:08:46:878
0.0129,0.0478,0.0282,41.88,5,1015.24,27.6,33.634,775004,18:08:47:878
0.0344,-0.006,-0.0483,41.88,5,1015.21,27.6,32.654,776004,18:08:48:878
0.0185,-0.0084,-0.0014,41.88,5,1015.21,27.6,33.242,777003,18:08:49:877
-0.0285,-0.0166,0.0297,41.88,5,1015.23,27.6,32.287,778003,18:08:50:877
0.0415,-0.013,0.0418,41.88,5,1015.23,27.5,32.853,779004,18:08:51:878
-0.0126,0.0063,0.0159,41.88,5,1015.23,27.5,31.982,780003,18:08:52:877
-0.0268,0.0215,0.0649,41.88,5,1015.24,27.5,32.788,781004,18:08:53:878
-0.0493,-0.0109,0.0134,41.88,5,1015.25,27.5,32.03,782004,18:08:54:878
-7.00E-04,-0.0065,-0.0587,41.88,5,1015.24,27.5,31.352,783003,18:08:55:877
0.0701,0.0364,-0.0031,41.88,5,1015.21,27.5,32.296,784004,18:08:56:878
0.0044,0.0222,0.0109,41.88,5,1015.22,27.5,32.634,785003,18:08:57:877
-0.032,0.0294,-0.086,41.88,5,1015.2,27.5,32.394,786004,18:08:58:878
-0.0329,-0.0012,-0.0416,41.88,5,1015.21,27.5,34.157,787003,18:08:59:877
0.0396,0.0137,0.0583,41.88,5,1015.21,27.5,31.712,788004,18:09:00:878
-0.0059,-0.0129,-0.0107,41.88,5,1015.22,27.5,32.621,789004,18:09:01:878
-0.0154,0.0394,0.035,41.88,5,1015.21,27.5,33.014,790003,18:09:02:877
-0.0061,-0.0302,-0.0149,41.88,5,1015.22,27.5,32.4,791004,18:09:03:878
-0.0053,0.0189,0.0436,41.88,5,1015.22,27.5,31.886,792004,18:09:04:878
0.0488,0.0148,0.0121,41.88,5,1015.23,27.5,33.653,793004,18:09:05:878
0.0388,0.0175,-0.0144,41.88,5,1015.2,27.5,33.275,794004,18:09:06:878
-0.0308,7.00E-04,0.0585,41.88,5,1015.21,27.5,32.412,795003,18:09:07:877
0.0383,0.039,0.0805,41.88,5,1015.2,27.5,32.967,796004,18:09:08:878
-0.007,0.0297,-0.0151,41.88,5,1015.22,27.5,31.937,797003,18:09:09:877
0.0401,0.0114,0.0193,41.88,5,1015.22,27.5,41.86,798004,18:09:10:878
-0.0255,0.0208,0.0884,41.88,5,1015.23,27.5,32.737,799003,18:09:11:877
0.0149,-0.0085,0.046,41.88,5,1015.21,27.5,32.876,800004,18:09:12:878
0.033,0.0159,-0.0382,41.88,5,1015.2,27.5,32.227,801004,18:09:13:878
-0.0027,-0.0113,5.00E-04,41.88,5,1015.22,27.5,32.411,802004,18:09:14:878
0.0149,0.031,0.0295,41.88,5,1015.22,27.5,32.703,803004,18:09:15:878
-0.0239,-0.0097,0.0442,41.88,5,1015.2,27.5,32.954,804003,18:09:16:877
-0.006,-0.0108,0.0786,41.88,5,1015.23,27.5,32.634,805004,18:09:17:878
-0.0082,0.0162,-0.0159,41.88,5,1015.22,27.5,32.59,806003,18:09:18:877
-0.048,0.0296,0.0619,41.88,5,1015.24,27.5,32.657,807004,18:09:19:878
0.0067,0.0152,0.0992,41.88,5,1015.22,27.5,33.576,808004,18:09:20:878
-0.0267,0.0129,-0.0329,41.88,5,1015.23,27.5,32.727,809004,18:09:21:878
0.0323,-0.0466,0.0834,41.88,5,1015.24,27.5,32.475,810004,18:09:22:878
0.0177,-0.0216,-0.0011,41.88,5,1015.24,27.5,33.638,811004,18:09:23:878
0.0761,-0.0053,0.0227,41.88,5,1015.25,27.5,33.306,812003,18:09:24:877
-0.0346,-0.0193,5.00E-04,41.88,5,1015.23,27.5,32.634,813003,18:09:25:877
-0.0314,-0.0189,-0.018,41.88,5,1015.28,27.5,34.23,814004,18:09:26:878
-0.0126,0.02,0.0137,41.88,5,1015.26,27.5,33.563,815004,18:09:27:878
0.047,0.0128,0.0177,41.88,5,1015.26,27.5,34.204,816003,18:09:28:877
-0.0573,0.0234,-0.0122,41.88,5,1015.26,27.5,34.308,817003,18:09:29:877
0.0212,-0.0167,0.0248,41.88,5,1015.27,27.5,35.223,818004,18:09:30:878
0.0405,0.0025,0.0044,41.88,5,1015.26,27.5,33.909,819003,18:09:31:877
-0.0226,0.0378,0.0024,41.88,5,1015.27,27.5,33.494,820004,18:09:32:878
-0.0537,0.0314,-0.0289,41.88,5,1015.29,27.5,34.231,821004,18:09:33:878
-0.0137,-0.0027,-0.0129,41.88,5,1015.28,27.5,33.227,822003,18:09:34:877
-2.00E-04,-0.0471,-0.1476,41.88,5,1015.26,27.5,34.987,823005,18:09:35:879
0.0077,0.0127,-0.0182,41.88,5,1015.26,27.5,33.999,824003,18:09:36:877
-0.0212,0.026,-0.0337,41.88,5,1015.26,27.5,33.723,825004,18:09:37:878
0.0364,0.0179,-0.0509,41.88,5,1015.26,27.5,33.494,826004,18:09:38:878
0.0575,-0.0181,0.0687,41.88,5,1015.22,27.5,34.68,827003,18:09:39:877
0.019,0.0116,0.0967,41.88,5,1015.23,27.5,34.147,828004,18:09:40:878
-0.0153,-0.0627,-0.1135,41.88,5,1015.22,27.5,33.943,829004,18:09:41:878
0.0288,-0.0042,0.0226,41.88,5,1015.24,27.5,34.05,830004,18:09:42:878
0.0243,0.0082,-0.0176,41.88,5,1015.23,27.5,34.3,831004,18:09:43:878
-0.0557,0.0293,-0.0478,41.88,5,1015.24,27.5,35.021,832004,18:09:44:878
-0.0284,-0.0246,0.006,41.88,5,1015.22,27.5,34.311,833003,18:09:45:877
-0.0181,0.0433,-0.0498,41.88,5,1015.22,27.5,36.07,834003,18:09:46:877
0.0514,0.0255,-0.0375,41.88,5,1015.23,27.5,33.682,835003,18:09:47:877
0.0345,-0.0329,-0.0571,41.88,5,1015.25,27.5,33.676,836004,18:09:48:878
-0.0082,2.00E-04,0.0721,41.88,5,1015.23,27.5,34.016,837003,18:09:49:877
-0.0096,-0.0242,-0.0603,41.88,5,1015.25,27.5,34.209,838004,18:09:50:878
-0.0278,0.0325,-0.0219,41.88,5,1015.25,27.5,34.899,839003,18:09:51:877
0.0379,0.0137,-0.039,41.88,5,1015.25,27.5,33.842,840004,18:09:52:878
0.0212,0.0128,-0.0133,41.88,5,1015.26,27.5,34.434,841004,18:09:53:878
-0.0306,-0.0283,-0.0417,41.88,5,1015.26,27.5,35.013,842004,18:09:54:878
-0.0053,-0.0483,-0.0194,41.88,5,1015.27,27.5,34.244,843003,18:09:55:877
0.0338,0.0333,-0.0321,41.88,5,1015.28,27.5,35.236,844004,18:09:56:878
-0.029,-3.00E-04,-0.0044,41.88,5,1015.26,27.5,32.873,845004,18:09:57:878
-0.0409,-0.0389,-0.0954,41.88,5,1015.25,27.5,32.398,846004,18:09:58:878
0.0383,-0.018,0.0189,41.88,5,1015.23,27.5,32.013,847004,18:09:59:878
-0.0363,-0.0011,0.0582,41.88,5,1015.25,27.5,33.191,848004,18:10:00:878
-0.0241,-0.0212,-0.0079,41.88,5,1015.25,27.5,33.702,849004,18:10:01:878
-0.0226,-0.0011,0.0063,41.88,5,1015.23,27.5,32.415,850004,18:10:02:878
0.0508,0.0315,0.0113,41.88,5,1015.23,27.5,33.173,851003,18:10:03:877
-0.0221,-0.0032,-0.0122,41.88,5,1015.23,27.5,33.892,852004,18:10:04:878
0.0338,0.0115,-0.047,41.88,5,1015.2,27.5,34.214,853004,18:10:05:878
-0.0421,-0.0078,-0.0367,41.88,5,1015.17,27.5,34.052,854003,18:10:06:877
0.0653,-0.0414,0.0439,41.88,5,1015.18,27.5,34.657,855004,18:10:07:878
-0.0105,-0.0112,0.0699,41.88,5,1015.2,27.5,34.283,856004,18:10:08:878
0.0054,-0.0503,-0.0284,41.88,5,1015.21,27.5,36.249,857003,18:10:09:877
0.0174,-0.0104,0.07,41.88,5,1015.2,27.5,35.329,858004,18:10:10:878
-0.0128,0.0222,0.1048,41.88,5,1015.2,27.5,36.621,859003,18:10:11:877
0.0203,-0.0407,0.0439,41.88,5,1015.22,27.5,36.891,860004,18:10:12:878
0.0072,-0.0655,-0.0725,41.88,5,1015.22,27.5,36.105,861004,18:10:13:878
-0.0058,0.0083,0.0438,41.88,5,1015.22,27.5,36.003,862004,18:10:14:878
-0.0273,0.0472,0.0455,41.88,5,1015.23,27.5,37.134,863004,18:10:15:878
-0.003,-0.0394,-0.0845,41.88,5,1015.24,27.5,36.765,864003,18:10:16:877
0.0066,-0.0283,-0.0238,41.88,5,1015.24,27.5,36.661,865003,18:10:17:877
0.0752,-0.0224,-0.0359,41.88,5,1015.27,27.5,36.17,866004,18:10:18:878
-0.0027,0.021,0.0067,41.88,5,1015.25,27.5,36.376,867004,18:10:19:878
0.0225,-0.0447,-0.0111,41.88,5,1015.22,27.5,37.104,868004,18:10:20:878
-0.063,0.0099,0.0129,41.88,5,1015.24,27.5,35.902,869004,18:10:21:878
-0.0169,0.0035,0.0213,41.88,5,1015.26,27.5,34.038,870003,18:10:22:877
-9.00E-04,0.0609,0.0277,41.88,5,1015.24,27.5,32.744,871004,18:10:23:878
-0.0017,0.0103,-0.0621,41.88,5,1015.24,27.5,33.034,872004,18:10:24:878
0.0029,3.00E-04,-0.0142,41.88,5,1015.24,27.5,33.581,873004,18:10:25:878
0.0793,0.0496,-0.0299,41.88,5,1015.26,27.5,32.915,874003,18:10:26:877
0.0162,-0.0035,-0.0373,41.88,5,1015.27,27.5,32.11,875004,18:10:27:878
-0.0582,-0.0186,0.0704,41.88,5,1015.26,27.5,33.126,876004,18:10:28:878
-0.0191,0.0685,-0.0862,41.88,5,1015.28,27.5,32.955,877004,18:10:29:878
-0.0091,0.0224,0.0394,41.88,5,1015.26,27.5,32.493,878004,18:10:30:878
0.0154,0.017,0.0384,41.88,5,1015.28,27.5,33.359,879003,18:10:31:877
-0.0309,-0.0161,9.00E-04,41.88,5,1015.27,27.5,32.711,880004,18:10:32:878
-0.0201,-0.0521,-2.00E-04,41.88,5,1015.26,27.5,32.577,881004,18:10:33:878
0.0153,0.0153,-0.047,41.88,5,1015.29,27.5,32.77,882003,18:10:34:877
-0.0182,0.0204,0.0812,41.88,5,1015.28,27.5,32.103,883004,18:10:35:878
0.0098,0.0126,0.0576,41.88,5,1015.28,27.5,32.904,884003,18:10:36:877
-0.0211,-0.0278,-0.0076,41.88,5,1015.26,27.4,32.858,885004,18:10:37:878
0.0031,-0.0114,0.0196,41.88,5,1015.28,27.5,32.448,886004,18:10:38:878
-0.0056,0.0249,0.0217,41.88,5,1015.27,27.4,32.934,887004,18:10:39:878
0.0125,-0.0044,0.0085,41.88,5,1015.26,27.5,32.622,888004,18:10:40:878
-0.0016,0.0221,-0.03,41.88,5,1015.3,27.4,34.591,889003,18:10:41:877
-0.0581,0.0491,-0.0425,41.88,5,1015.3,27.4,38.841,890003,18:10:42:877
0.0736,-0.0018,-0.0058,41.88,5,1015.32,27.4,37.201,891004,18:10:43:878
-0.009,-0.0243,0.0447,41.88,5,1015.3,27.4,36.602,892004,18:10:44:878
-0.0115,0.0224,0.0161,41.88,5,1015.3,27.4,36.661,893004,18:10:45:878
-0.057,0.028,0.0696,41.88,5,1015.31,27.4,36.564,894003,18:10:46:877
0.0146,-0.0033,-0.013,41.88,5,1015.28,27.4,33.39,895004,18:10:47:878
-0.0171,0.0266,-0.0144,41.88,5,1015.29,27.4,32.674,896003,18:10:48:877
0.0212,-0.0444,0.0329,41.88,5,1015.31,27.4,32.198,897004,18:10:49:878
-0.0295,-0.0026,0.0457,41.88,5,1015.27,27.4,32.075,898004,18:10:50:878
-0.033,0.035,0.0029,41.88,5,1015.3,27.4,30.885,899004,18:10:51:878
-0.0727,-0.0269,-0.0302,41.88,5,1015.3,27.4,31.81,900004,18:10:52:878
-0.0324,-0.0219,0.0322,41.88,5,1015.28,27.4,33.141,901004,18:10:53:878
0.0113,-0.0138,-0.0607,41.88,5,1015.27,27.4,32.688,902003,18:10:54:877
-0.0218,-0.0138,-0.0407,41.88,5,1015.27,27.4,31.702,903004,18:10:55:878
0.0457,-0.0014,0.0663,41.88,5,1015.28,27.4,32.476,904004,18:10:56:878
0.0283,-0.021,0.0225,41.88,5,1015.3,27.4,33.914,905003,18:10:57:877
-0.0468,0.0126,0.006,41.88,5,1015.27,27.4,32.916,906003,18:10:58:877
-0.029,0.0596,0.0657,41.88,5,1015.29,27.4,34.488,907004,18:10:59:878
0.0287,-0.0647,-0.0527,41.88,5,1015.27,27.4,33.722,908004,18:11:00:878
0.0031,0.0023,-0.0139,41.88,5,1015.27,27.4,35.349,909004,18:11:01:878
-0.0035,0.0668,0.0854,41.88,5,1015.25,27.4,35.8,910004,18:11:02:878
0.024,-6.00E-04,0.0081,41.88,5,1015.26,27.4,35.02,911003,18:11:03:877
-0.0256,0.0094,-0.0311,41.88,5,1015.26,27.4,34.08,912003,18:11:04:877
-0.0119,0.0204,0.0307,41.88,5,1015.24,27.4,33.984,913004,18:11:05:878
-0.0065,-0.0414,0.0158,41.88,5,1015.23,27.4,40.875,914005,18:11:06:879
0.0021,-0.0381,-0.0346,41.88,5,1015.25,27.4,38.258,915003,18:11:07:877
0.0413,-0.0213,-0.0344,41.88,5,1015.27,27.4,39.026,916004,18:11:08:878
0.0155,-0.0016,0.0229,41.88,5,1015.23,27.4,40.743,917004,18:11:09:878
-0.011,-0.0699,-0.0518,41.88,5,1015.23,27.4,39.076,918004,18:11:10:878
-0.03,0.0719,-0.014,41.88,5,1015.24,27.4,38.563,919004,18:11:11:878
0.0421,0.0096,0.0512,41.88,5,1015.25,27.4,36.585,920005,18:11:12:879
0.0133,0.0371,-0.0397,41.88,5,1015.24,27.4,36.355,921004,18:11:13:878
0.002,-0.0309,-0.0065,41.88,5,1015.22,27.4,34.709,922004,18:11:14:878
0.0193,0.012,-0.0167,41.88,5,1015.2,27.4,34.795,923004,18:11:15:878
-0.0416,0.0149,0.0755,41.88,5,1015.21,27.4,34.983,924004,18:11:16:878
0.0332,-0.041,-0.0626,41.88,5,1015.21,27.4,35.19,925004,18:11:17:878
-0.0242,0.0101,0.0154,41.88,5,1015.22,27.4,37.428,926003,18:11:18:877
-0.0169,-0.0093,-0.0077,41.88,5,1015.2,27.4,35.052,927004,18:11:19:878
-0.0355,-0.0319,0.0292,41.88,5,1015.24,27.4,33.976,928004,18:11:20:878
0.0506,-0.0333,-0.0525,41.88,5,1015.22,27.4,34.374,929004,18:11:21:878
0.0036,0.0053,0.0078,41.88,5,1015.2,27.4,34.93,930003,18:11:22:877
0.0489,0.026,0.0048,41.88,5,1015.24,27.4,34.068,931003,18:11:23:877
3.00E-04,0.0143,0.0079,41.88,5,1015.23,27.4,35.144,932004,18:11:24:878
0.0123,-0.0147,0.0431,41.88,5,1015.24,27.4,36.328,933003,18:11:25:877
-0.045,-0.0257,-0.0788,41.88,5,1015.22,27.4,34.135,934004,18:11:26:878
-0.0095,-0.0238,0.0485,41.88,5,1015.23,27.4,34.634,935003,18:11:27:877
-0.0477,-0.0288,0.0682,41.88,5,1015.24,27.4,36.047,936004,18:11:28:878
-0.0308,-0.0429,0.0211,41.88,5,1015.23,27.4,34.743,937004,18:11:29:878
0.0361,-0.024,-0.0111,41.88,5,1015.23,27.4,35.413,938004,18:11:30:878
-0.0195,0.0342,0.0369,41.88,5,1015.23,27.4,35.299,939004,18:11:31:878
0.0068,0.0265,-0.0362,41.88,5,1015.24,27.4,35.09,940004,18:11:32:878
-0.0164,-0.0262,-0.005,41.88,5,1015.25,27.4,34.12,941003,18:11:33:877
0.0298,-0.0474,-0.102,37.07,5,1015.23,27.4,37.093,942004,18:11:34:878
-0.0191,0.0583,0.0182,37.07,5,1015.24,27.4,34.601,943003,18:11:35:877
0.0168,-0.0361,-0.0159,37.07,5,1015.22,27.4,34.152,944004,18:11:36:878
-0.0111,0.0125,-0.0411,37.07,5,1015.24,27.4,39.863,945004,18:11:37:878
-0.0089,-0.0181,0.0394,37.07,5,1015.24,27.4,35.219,946004,18:11:38:878
0.024,-0.0101,-0.0061,37.07,5,1015.24,27.4,34.746,947004,18:11:39:878
0.0495,-0.0036,0.0611,37.07,5,1015.24,27.4,35.044,948003,18:11:40:877
-0.019,0.0475,0.0327,37.07,5,1015.25,27.4,35.464,949003,18:11:41:877
0.0277,-0.0165,0.0145,37.07,5,1015.24,27.4,36.669,950004,18:11:42:878
-0.0257,0.0109,-0.0915,37.07,5,1015.26,27.4,35.271,951003,18:11:43:877
0.0084,0.0268,0.0578,37.07,5,1015.24,27.4,35.826,952004,18:11:44:878
0.0364,-0.0072,-0.0216,37.07,5,1015.26,27.4,35.118,953003,18:11:45:877
-0.0161,-0.0075,0.0153,37.07,5,1015.24,27.4,35.482,954004,18:11:46:878
4.00E-04,0.0073,-0.0058,37.07,5,1015.22,27.4,46.795,955004,18:11:47:878
-0.0358,-0.0111,0.0098,37.07,5,1015.23,27.4,34.359,956003,18:11:48:877
-0.028,-0.0031,-0.0267,37.07,5,1015.22,27.4,37.021,957003,18:11:49:877
0.0071,-0.0103,0.0285,37.07,5,1015.21,27.4,35.637,958004,18:11:50:878
-0.017,-0.0204,-0.0042,37.07,5,1015.22,27.4,35.176,959004,18:11:51:878
0.0091,-0.0028,7.00E-04,37.07,5,1015.22,27.4,32.989,960004,18:11:52:878
-0.0128,-0.0286,-0.0698,37.07,5,1015.22,27.4,33.561,961004,18:11:53:878
-0.0086,0.0411,0.0643,37.07,5,1015.22,27.4,35.332,962003,18:11:54:877
0.0319,0.054,-0.0536,37.07,5,1015.23,27.4,32.574,963004,18:11:55:878
-0.03,-3.00E-04,-0.0097,37.07,5,1015.23,27.4,34.086,964004,18:11:56:878
0.0192,-0.0119,0.0071,37.07,5,1015.21,27.4,33.695,965004,18:11:57:878
0.0234,0.0015,0.0041,37.07,5,1015.24,27.4,36.627,966004,18:11:58:878
-0.0335,0.008,0.0024,37.07,5,1015.25,27.4,35.502,967003,18:11:59:877
-0.0141,-0.0324,0.0238,37.07,5,1015.26,27.4,33.438,968004,18:12:00:878
-0.0045,-0.0451,-0.0036,37.07,5,1015.25,27.4,32.882,969004,18:12:01:878
-0.0501,0.0052,0.0492,37.07,5,1015.25,27.4,32.368,970004,18:12:02:878
0.0014,2.00E-04,0.0516,37.07,5,1015.28,27.4,33.76,971003,18:12:03:877
0.0147,-0.0088,0.0899,37.07,5,1015.3,27.4,35.531,972004,18:12:04:878
0.0163,0.0228,0.0228,37.07,5,1015.29,27.4,33.272,973004,18:12:05:878
-0.0194,0.0155,-0.0168,37.07,5,1015.27,27.4,33.377,974004,18:12:06:878
0.0173,-0.0331,0.0273,37.07,5,1015.27,27.4,31.407,975003,18:12:07:877
0.0162,0.001,0.0185,37.07,5,1015.28,27.4,32.134,976003,18:12:08:877
0.0101,0.0779,0.0198,37.07,5,1015.26,27.4,32.942,977004,18:12:09:878
1.7575,1.4235,-0.6995,4.81,5,1015.2,27.4,35.13,978003,18:12:10:877
0.7291,0.9459,-1.3343,7.92,5,1015.21,27.4,37.182,979003,18:12:11:877
1.238,-0.5642,-2.5622,4.81,5,1015.46,27.4,39.851,980003,18:12:12:877
-0.0982,1.2235,-0.9608,8.2,5,1016.33,27.4,36.505,981004,18:12:13:878
-0.1238,0.1108,-0.4668,8.2,5,1016.66,27.5,35.929,982003,18:12:14:877
0.597,0.1986,0.0346,11.03,5,1016.92,27.6,36.522,983003,18:12:15:877
-0.2506,0.042,-0.0809,16.41,5,1017.32,27.8,36.107,984004,18:12:16:878
-0.0457,0.1484,-0.4824,16.41,5,1017.2,28,35.558,985004,18:12:17:878
0.1484,0.2045,-0.6447,16.41,5,1016.93,28.2,36.335,986003,18:12:18:877
0.0181,-2.218,0.7947,19.52,5,1016.85,28.3,37.15,987003,18:12:19:877
0.1717,-0.1501,-0.0174,17.82,5,1016.68,28.4,36.12,988003,18:12:20:877
-0.0961,0.1068,0.1485,15.84,5,1016.46,28.5,35.569,989003,18:12:21:877
-0.1013,0.2032,-0.156,15.84,5,1016.54,28.6,36.223,990003,18:12:22:877
0.1379,0.0297,-0.0615,15.84,5,1016.85,28.6,36.089,991003,18:12:23:877
0.4318,-0.2074,0.3326,15.84,5,1016.48,28.8,36.227,992003,18:12:24:877
0.1197,0.3207,-0.2442,10.75,5,1016.03,28.8,39.883,993003,18:12:25:877
0.2108,0.1164,-0.4276,18.96,5,1015.87,28.9,36.904,994003,18:12:26:877
0.06,-0.0012,0.0319,16.98,5,1015.79,28.9,38.236,995003,18:12:27:877
0.0836,-0.0041,-0.1783,16.98,5,1015.85,28.9,36.788,996003,18:12:28:877
0.0802,0.0379,-0.0386,16.98,5,1015.95,29,36.937,997003,18:12:29:877
0.1821,-0.0664,-0.6428,16.98,5,1015.83,29,36.707,998003,18:12:30:877
-0.2639,0.0707,-0.112,16.98,5,1015.94,29,36.867,999004,18:12:31:878
-0.0248,-0.0317,0.1458,15.28,5,1015.94,29.1,36.787,1000003,18:12:32:877
0.5389,0.1296,-0.1662,7.35,5,1015.73,29.2,36.264,1001003,18:12:33:877
0.0244,-0.2001,-0.0933,14.99,5,1016.12,29.2,38.653,1002003,18:12:34:877
0.0324,-0.0248,0.0506,19.52,5,1016.47,29.2,44.013,1003003,18:12:35:877
0.0656,0.1519,-0.2115,19.52,5,1016.64,29.3,36.508,1004003,18:12:36:877
0.0803,-0.0781,-0.0933,21.5,5,1016.88,29.4,40.481,1005003,18:12:37:877
-0.0269,0.0723,0.073,21.5,5,1016.56,29.5,35.007,1006004,18:12:38:878
0.056,0.0101,-0.0911,21.5,5,1016.35,29.6,36.906,1007004,18:12:39:878
-0.0185,0.1187,-0.035,21.5,5,1016.47,29.7,36.515,1008004,18:12:40:878
-0.0245,0.1146,0.0972,21.5,5,1016.78,29.8,36.065,1009003,18:12:41:877
-0.0103,-0.0217,0.02,21.5,5,1016.33,29.9,35.654,1010003,18:12:42:877
-0.2108,0.1608,0.2459,21.5,5,1015.69,30,35.676,1011003,18:12:43:877
0.2312,-0.0979,-0.0323,19.24,5,1015.34,30,34.986,1012004,18:12:44:878
0.0492,-0.0359,0.0161,19.24,5,1015.05,30,34.339,1013004,18:12:45:878
0.0196,-0.0369,-0.2658,19.24,5,1014.93,30,33.763,1014004,18:12:46:878
0.0452,0.0391,0.0123,19.24,5,1014.95,30,32.768,1015003,18:12:47:877
0.0491,-0.0616,0.0334,19.24,5,1014.78,29.9,33.06,1016004,18:12:48:878
0.4009,-0.3122,-0.1273,10.75,5,1014.58,29.9,38.342,1017004,18:12:49:878
0.0644,-0.0172,0.0732,10.75,5,1014.48,29.8,33.353,1018004,18:12:50:878
0.0488,0.0146,0.0368,10.75,5,1014.52,29.8,34.887,1019003,18:12:51:877
0.0225,-0.0259,-0.0262,10.75,5,1015.08,29.7,33.354,1020004,18:12:52:878
0.1093,-0.037,-0.111,9.62,5,1015.79,29.7,34.66,1021003,18:12:53:877
-0.0353,-0.0485,-0.0583,9.62,5,1015.61,29.8,34.136,1022003,18:12:54:877
0.0546,0.0123,-0.0342,9.62,5,1015.34,29.8,34.841,1023003,18:12:55:877
0.0247,-0.0343,-0.0527,8.49,5,1015.11,29.8,36.158,1024003,18:12:56:877
0.1562,-0.1262,-0.0542,9.62,5,1014.93,29.8,38.702,1025003,18:12:57:877
0.0268,0.0309,0.0524,9.62,5,1014.78,29.8,37.201,1026004,18:12:58:878
0.2201,-0.316,-0.5038,9.62,5,1014.68,29.7,38.996,1027004,18:12:59:878
0.1148,-0.1332,-0.024,9.62,5,1014.65,29.7,37.302,1028004,18:13:00:878
0.2357,-0.0031,-0.0228,9.62,5,1014.69,29.7,38.467,1029003,18:13:01:877
0.1447,-0.0455,0.0218,9.62,5,1014.66,29.6,37.87,1030003,18:13:02:877
-0.0112,-0.0675,0.0142,9.62,5,1014.61,29.6,37.74,1031003,18:13:03:877
0.1287,-0.1303,-0.0295,9.62,5,1014.69,29.5,38.557,1032003,18:13:04:877
-0.864,0.6291,-0.0856,16.41,5,1014.73,29.5,38.573,1033004,18:13:05:878
-0.0552,0.1012,-0.0679,16.41,5,1015.25,29.5,38.627,1034003,18:13:06:877
-0.0231,0.0062,-0.0041,16.41,5,1015.68,29.5,39.439,1035003,18:13:07:877
-0.0118,-0.0094,-0.0372,16.41,5,1015.95,29.5,38.731,1036003,18:13:08:877
0.0627,0.0224,0.0377,16.41,5,1016.07,29.6,39.022,1037003,18:13:09:877
0.0391,-0.056,-0.035,16.41,5,1015.99,29.7,38.863,1038004,18:13:10:878
0.0572,0.0221,-0.0492,16.41,5,1015.66,29.7,38.998,1039004,18:13:11:878
0.046,0.0814,-0.0341,16.41,5,1015.33,29.7,38.932,1040004,18:13:12:878
0.0194,0.0963,-0.0579,16.41,5,1015.13,29.7,38.632,1041004,18:13:13:878
0.0483,-0.0346,-0.0756,16.41,5,1014.99,29.7,38.375,1042003,18:13:14:877
-0.0724,0.001,0.0169,16.41,5,1014.97,29.7,38.375,1043004,18:13:15:878
0.0187,0.0389,-0.0622,16.41,5,1014.89,29.7,41.434,1044004,18:13:16:878
6.00E-04,0.0054,0.0296,16.41,5,1015.19,29.7,37.655,1045003,18:13:17:877
0.0634,0.0682,-8.00E-04,16.41,5,1015.51,29.7,37.245,1046003,18:13:18:877
-0.0387,-0.0499,-0.0631,16.41,5,1016.01,29.7,37.195,1047004,18:13:19:878
0.0058,-0.0423,0.0231,16.41,5,1015.83,29.8,37.16,1048004,18:13:20:878
0.0378,0.0421,0.0277,16.41,5,1015.54,29.8,37.53,1049004,18:13:21:878
0.0383,0.0208,0.0145,16.41,5,1015.29,29.8,36.208,1050004,18:13:22:878
0.0136,0.0697,0.006,16.41,5,1015.11,29.8,35.432,1051004,18:13:23:878
0.0514,-0.0599,-0.0605,16.41,5,1015.01,29.8,35.539,1052003,18:13:24:877
0.0801,0.0031,0.0911,16.41,5,1014.9,29.8,35.005,1053003,18:13:25:877
0.2462,-0.1159,0.0237,16.41,5,1015.23,29.7,34.564,1054003,18:13:26:877
-0.0727,0.0347,-0.1463,16.41,5,1015.54,29.7,35.751,1055004,18:13:27:878
0.1335,-0.0226,-0.0045,16.41,5,1015.74,29.8,33.839,1056003,18:13:28:877
0.0753,0.0124,-0.2114,16.41,5,1015.83,29.8,35.145,1057003,18:13:29:877
-0.0837,0.0104,0.0495,16.41,5,1015.98,29.9,36.127,1058003,18:13:30:877
0.0363,-0.1501,0.1617,20.37,5,1015.98,29.9,38.13,1059003,18:13:31:877
-0.0065,0.0018,-0.0971,20.37,5,1015.83,30,36.041,1060003,18:13:32:877
-0.0135,-0.0514,-0.2042,20.37,5,1016.04,30,36.313,1061003,18:13:33:877
0.0832,0.0033,0.1594,20.37,5,1015.99,30.1,37.04,1062003,18:13:34:877
0.0165,0.0327,0.0373,17.82,5,1015.72,30.1,34.255,1063004,18:13:35:878
-0.0113,0.0254,0.0035,19.81,5,1015.41,30.1,35.666,1064004,18:13:36:878
-0.0107,0.0325,-0.1077,19.81,5,1015.12,30.1,34.139,1065004,18:13:37:878
0.0705,0.0104,0.163,19.81,5,1015.19,30.1,34.959,1066003,18:13:38:877
7.00E-04,0.0339,-0.0314,19.81,5,1015.13,30.1,35.62,1067003,18:13:39:877
0.1369,0.0479,0.0415,19.81,5,1015.24,30.1,37.034,1068004,18:13:40:878
-0.0263,0.0635,0.0288,19.81,5,1015.3,30.1,36.095,1069004,18:13:41:878
0.0417,0.0262,-0.0474,19.81,5,1015.66,30.1,36.416,1070004,18:13:42:878
0.0184,-0.026,0.0599,19.81,5,1015.69,30.2,36.807,1071004,18:13:43:878
0.056,0.0092,0.0278,19.81,5,1015.49,30.2,36.777,1072003,18:13:44:877
0.0661,-0.0117,-0.0183,19.81,5,1015.34,30.2,37.263,1073004,18:13:45:878
-0.0118,0.0266,-0.0449,19.81,5,1015.23,30.2,37.668,1074004,18:13:46:878
0.0756,-0.0152,-0.0492,19.81,5,1015.12,30.2,38.104,1075003,18:13:47:877
0.0173,-0.0892,-0.0253,19.81,5,1015.04,30.2,38.098,1076003,18:13:48:877
0.1382,-0.0574,0.0691,17.26,5,1015.17,30.2,38.771,1077004,18:13:49:878
-0.0562,0.0808,-0.0211,17.26,5,1015.24,30.2,38.883,1078004,18:13:50:878
-0.0136,0.0515,0.0341,17.26,5,1015.29,30.2,39.112,1079004,18:13:51:878
-0.0104,0.0767,-0.1878,17.26,5,1015.2,30.2,39.102,1080004,18:13:52:878
-0.0363,0.0746,-0.0815,17.26,5,1015.24,30.2,39.273,1081004,18:13:53:878
-0.0243,-0.018,0.0552,17.26,5,1015.31,30.2,39.09,1082004,18:13:54:878
0.044,-0.0232,-0.0215,17.26,5,1015.37,30.2,39.223,1083004,18:13:55:878
0.0217,0.0481,0.0853,17.26,5,1015.49,30.2,41.915,1084004,18:13:56:878
0.0488,-0.0153,0.0635,19.24,5,1015.54,30.2,39.332,1085003,18:13:57:877
0.1475,0.0324,0.4268,19.24,5,1015.43,30.2,38.986,1086004,18:13:58:878
0.0489,-0.0638,-0.0073,19.24,5,1015.34,30.2,37.809,1087003,18:13:59:877
-0.0414,0.0686,0.0525,19.24,5,1015.32,30.2,37.864,1088003,18:14:00:877
-0.0114,-0.0369,0.0586,19.24,5,1015.42,30.2,37.178,1089003,18:14:01:877
0.0129,0.0129,-0.0152,19.24,5,1015.37,30.2,36.941,1090003,18:14:02:877
0.0472,-0.026,-0.038,19.24,5,1015.56,30.2,41.286,1091003,18:14:03:877
0.1081,0.0562,0.0395,19.24,5,1015.72,30.3,43.884,1092003,18:14:04:877
-0.9778,0.5205,0.0733,19.24,5,1015.96,30.3,40.242,1093003,18:14:05:877
0.1476,-0.0415,0.1402,136.97,5,1015.99,30.4,39.712,1094003,18:14:06:877
-0.0169,-0.1565,-0.0551,136.97,5,1015.82,30.4,32.853,1095004,18:14:07:878
-0.1193,0.2056,1.2433,119.42,5,1015.44,30.5,40.864,1096003,18:14:08:877
0.22,0.2821,0.0571,31.13,5,1015.21,30.4,34.13,1097003,18:14:09:877
0.068,0.0808,0.0294,31.13,5,1015.03,30.4,34.164,1098004,18:14:10:878
0.0295,-0.0018,-0.0786,31.13,5,1014.94,30.4,31.236,1099004,18:14:11:878
0.325,-0.4384,-0.0664,31.13,5,1014.96,30.4,38.438,1100004,18:14:12:878
0.0622,0.029,-0.0384,31.13,5,1015.22,30.3,32.619,1101004,18:14:13:878
0.0746,0.0241,0.0657,31.13,5,1015.36,30.4,34.875,1102004,18:14:14:878
0.0023,-0.0033,-0.0012,31.13,5,1015.44,30.4,33.485,1103004,18:14:15:878
0.0712,0.0636,2.00E-04,31.13,5,1015.3,30.4,34.888,1104004,18:14:16:878
0.0088,0.0444,-0.3798,31.13,5,1015.12,30.4,36.381,1105004,18:14:17:878
0.0711,-0.0016,-0.0331,16.69,5,1015.26,30.4,36.46,1106004,18:14:18:878
0.086,-0.0358,-0.1375,18.39,5,1015.34,30.4,35.746,1107004,18:14:19:878
0.0591,0.0297,0.0404,18.39,5,1015.23,30.4,36.072,1108003,18:14:20:877
-0.0574,0.0105,-0.0179,18.39,5,1015.11,30.4,36.54,1109003,18:14:21:877
0.0666,0.0324,-0.0509,18.39,5,1014.99,30.3,36.729,1110003,18:14:22:877
-0.0832,-0.0129,-0.0687,18.39,5,1015.2,30.3,41.44,1111003,18:14:23:877
0.0184,-0.1852,-0.1069,20.37,5,1015.39,30.3,36.681,1112004,18:14:24:878
0.0311,0.0088,-0.0107,20.37,5,1015.66,30.3,38.76,1113004,18:14:25:878
0.1862,-0.172,-0.0602,20.37,5,1015.7,30.4,39.941,1114006,18:14:26:880
0.0441,-0.0068,-0.1311,18.11,5,1015.53,30.4,35.998,1115004,18:14:27:878
-0.0125,0.0358,-0.0117,19.52,5,1015.28,30.2,35.792,6,18:15:11:583
0.0369,0.0558,-0.1667,19.52,5,1015.3,30.2,36.919,1006,18:15:12:583
0.0745,-0.0043,-0.1312,19.52,5,1015.23,30.2,38.093,2006,18:15:13:583
0.0542,-0.0472,-0.0579,19.52,5,1015.41,30.2,38.191,3006,18:15:14:583
-0.396,-0.301,-0.5522,138.67,5,1015.46,30.2,50.203,4006,18:15:15:583
0.3098,-0.2081,-0.186,53.48,5,1015.41,30.2,58.546,5005,18:15:16:582
0.0576,-0.0843,-0.0602,53.48,5,1015.37,30.2,40.477,6005,18:15:17:582
0.0534,-0.002,-0.0183,53.48,5,1015.26,30.2,36.689,7006,18:15:18:583
-0.0536,0.0435,0.0723,53.48,5,1015.15,30.2,35.886,8006,18:15:19:583
0.0108,0.0446,0.0264,53.48,5,1015.19,30.2,46.043,9006,18:15:20:583
0.0406,-0.0565,-0.0257,53.48,5,1015.15,30.2,34.986,10006,18:15:21:583
0.0278,-0.0313,0.0427,53.48,5,1015.1,30.2,34.674,11005,18:15:22:582
0.0112,0.0297,0.0239,53.48,5,1015.08,30.1,34.597,12006,18:15:23:583
0.0165,8.00E-04,0.0247,53.48,5,1015.06,30.1,35.989,13006,18:15:24:583
0.0026,-0.0369,0.0908,53.48,5,1015.05,30.1,38.416,14006,18:15:25:583
0.0181,0.042,0.0394,53.48,5,1015.07,30.1,38.645,15005,18:15:26:582
0.0054,-0.0445,5.00E-04,53.48,5,1015.09,30.1,36.678,16006,18:15:27:583
0.0102,-0.0242,0.0242,53.48,5,1015.15,30.1,38.647,17006,18:15:28:583
-0.0123,0.0383,0.0345,53.48,5,1015.12,30,35.797,18006,18:15:29:583
-0.0144,0.0033,0.0813,53.48,5,1015.11,30,35.828,19006,18:15:30:583
-0.0459,0.0234,-0.015,53.48,5,1015.1,30,35.759,20005,18:15:31:582
-0.0258,0.0619,-0.0254,53.48,5,1015.13,30,34.776,21006,18:15:32:583
0.0273,0.0396,-0.0289,53.48,5,1015.16,30,35.572,22006,18:15:33:583
-0.0081,0.0314,0.0237,53.48,5,1015.18,30,35.407,23005,18:15:34:582
0.002,0.0821,-0.0185,53.48,5,1015.32,30,34.777,24006,18:15:35:583
0.0277,-0.0193,0.0332,53.48,5,1015.31,30,37.913,25005,18:15:36:582
0.004,-0.0078,-0.0417,53.48,5,1015.27,30,32.983,26005,18:15:37:582
-0.0169,-0.0108,-0.0381,53.48,5,1015.23,30,32.543,27006,18:15:38:583
7.00E-04,0.0359,0.0299,53.48,5,1015.21,29.9,32.13,28006,18:15:39:583
-0.0117,0.0125,0.0238,53.48,5,1015.18,29.9,31.18,29006,18:15:40:583
-0.0035,0.0303,0.0033,53.48,5,1015.19,29.9,32.133,30006,18:15:41:583
0.0294,-0.0149,0.0137,53.48,5,1015.23,29.9,31.88,31005,18:15:42:582
0.0373,-0.0615,-0.0772,53.48,5,1015.3,29.9,31.566,32005,18:15:43:582
-0.0088,0.0106,-0.0423,53.48,5,1015.33,29.9,31.55,33006,18:15:44:583
-0.0418,0.009,0.0033,53.48,5,1015.34,29.9,33.016,34006,18:15:45:583
-0.026,0.0076,0.0131,53.48,5,1015.27,29.9,32.87,35006,18:15:46:583
0.0237,0.0314,0.0304,53.48,5,1015.24,29.9,33.539,36006,18:15:47:583
-0.0192,0.027,0.0059,53.48,5,1015.2,29.9,33.418,37006,18:15:48:583
-0.0321,0.0058,0.007,53.48,5,1015.16,29.8,33.436,38006,18:15:49:583
0.0177,0.0408,0.007,53.48,5,1015.14,29.8,34.001,39005,18:15:50:582
-0.035,-0.0068,0.0441,53.48,5,1015.16,29.8,33.84,40005,18:15:51:582
0.0029,0.0083,0.0061,53.48,5,1015.15,29.8,34.607,41006,18:15:52:583
0.0261,0.0024,-0.0589,53.48,5,1015.13,29.8,34.76,42006,18:15:53:583
0.0052,-0.0048,0.0634,53.48,5,1015.14,29.8,34.266,43005,18:15:54:582
-0.0205,0.032,0.0371,53.48,5,1015.12,29.7,34.887,44005,18:15:55:582
0.0401,0.0076,-0.0501,53.48,5,1015.11,29.7,34.595,45006,18:15:56:583
-0.0011,-0.0072,-0.0154,53.48,5,1015.17,29.7,34.972,46006,18:15:57:583
0.0227,-0.0547,0.0293,53.48,5,1015.13,29.7,34.431,47005,18:15:58:582
0.0162,-0.0126,0.0752,53.48,5,1015.15,29.7,34.694,48006,18:15:59:583
-0.0243,0.0013,0.0488,53.48,5,1015.19,29.7,34.809,49005,18:16:00:582
0.0602,-0.0363,-0.026,53.48,5,1015.28,29.7,34.708,50006,18:16:01:583
-0.0302,-0.0032,0.0546,53.48,5,1015.29,29.7,35.237,51007,18:16:02:584
-0.0464,0.0016,-0.0603,53.48,5,1015.25,29.7,34.86,52006,18:16:03:583
0.0464,0.0205,-0.0122,53.48,5,1015.2,29.7,35.03,53006,18:16:04:583
-0.0233,0.0187,0.0504,53.48,5,1015.21,29.7,34.722,54006,18:16:05:583
0.0076,0.017,0.0438,53.48,5,1015.2,29.7,34.711,55005,18:16:06:582
-0.0381,-0.0139,-0.0217,53.48,5,1015.19,29.7,34.524,56006,18:16:07:583
-0.0285,-0.0087,0.0459,53.48,5,1015.17,29.7,34.1,57005,18:16:08:582
0.0109,0.0214,0.0199,53.48,5,1015.19,29.6,35.029,58006,18:16:09:583
0.0176,0.0196,0.0603,53.48,5,1015.18,29.6,34.771,59005,18:16:10:582
-0.0014,-0.0051,0.0278,53.48,5,1015.21,29.6,34.791,60006,18:16:11:583
0.034,0.0484,-0.0218,53.48,5,1015.2,29.6,34.869,61006,18:16:12:583
-0.004,-0.0168,0,53.48,5,1015.21,29.6,36.148,62005,18:16:13:582
0.02,0.0255,-0.0535,53.48,5,1015.21,29.6,37.152,63006,18:16:14:583
0.0164,-0.0362,0.0333,52.92,5,1015.51,29.6,35.612,64006,18:16:15:583
0.0372,-0.0529,0.0087,52.92,5,1015.68,29.6,36.731,65006,18:16:16:583
-0.0015,-0.0162,0.0603,52.92,5,1015.59,29.6,35.387,66005,18:16:17:582
-0.0536,0.0178,-0.0805,52.92,5,1015.51,29.6,35.128,67005,18:16:18:582
0.0427,-0.0274,0.0573,52.92,5,1015.36,29.6,34.889,68006,18:16:19:583
0.0188,-0.0524,-0.158,52.92,5,1015.25,29.6,34.762,69006,18:16:20:583
-0.0234,0.0417,0.0115,52.92,5,1015.17,29.6,40.353,70005,18:16:21:582
0.0391,0.0544,0.0734,52.92,5,1015.12,29.6,36.888,71006,18:16:22:583
0.031,-0.0013,0.0059,52.92,5,1015.03,29.6,36.115,72005,18:16:23:582
0.0509,-0.018,0.0196,52.92,5,1015,29.6,36.162,73006,18:16:24:583
-0.0108,-0.0063,-0.0168,52.92,5,1014.98,29.5,37.069,74006,18:16:25:583
-0.0199,0.0393,0.0147,52.92,5,1014.98,29.5,35.941,75005,18:16:26:582
0.0476,0.0234,0.0075,52.92,5,1014.96,29.5,35.835,76006,18:16:27:583
0.0412,0.0257,0.0084,52.92,5,1014.96,29.4,34.931,77005,18:16:28:582
-0.0029,0.0319,0.0036,52.92,5,1014.98,29.4,34.426,78006,18:16:29:583
0.0529,-0.004,0.0104,52.92,5,1014.99,29.4,34.799,79006,18:16:30:583
-0.0428,-0.0266,0.1095,52.92,5,1015,29.4,34.939,80006,18:16:31:583
0.0174,0.0121,-0.0059,52.92,5,1014.97,29.3,40.357,81006,18:16:32:583
-0.0267,-0.016,-0.0171,52.92,5,1014.98,29.3,33.115,82006,18:16:33:583
0.0074,-0.008,-0.084,52.92,5,1015.02,29.3,34.955,83005,18:16:34:582
0.0115,0.0107,-0.0282,52.92,5,1015.06,29.3,35.366,84006,18:16:35:583
0.0104,-0.0199,-0.0135,52.92,5,1015.05,29.3,33.977,85006,18:16:36:583
0.0366,0.0074,0.0213,52.92,5,1015.07,29.2,31.239,86005,18:16:37:582
-0.0259,-0.0228,-6.00E-04,52.92,5,1015.09,29.2,32.442,87005,18:16:38:582
-0.0054,-0.0037,-0.0696,52.92,5,1015.08,29.2,35.694,88006,18:16:39:583
-0.0087,-0.0252,-0.0348,52.92,5,1015.06,29.2,32.093,89006,18:16:40:583
-0.0358,0.0025,0.0365,52.92,5,1015.07,29.2,32.152,90006,18:16:41:583
6.00E-04,-0.0233,-0.0364,52.92,5,1015.07,29.2,32.485,91006,18:16:42:583
0.013,-0.0019,-0.0285,52.92,5,1015.08,29.1,33.233,92006,18:16:43:583
-0.0198,-0.0284,0.028,52.92,5,1015.11,29.1,34.045,93006,18:16:44:583
0.01,0.0383,0.0268,52.92,5,1015.11,29.1,35.289,94006,18:16:45:583
-0.0408,0.0172,0.0658,52.92,5,1015.11,29.1,34.195,95006,18:16:46:583
0.0513,0.0205,-0.1026,52.92,5,1015.11,29.1,35.06,96005,18:16:47:582
-0.0211,-0.05,0.0069,52.92,5,1015.09,29.1,35.792,97005,18:16:48:582
0.0437,0.0438,0.0503,52.92,5,1015.11,29.1,35.471,98005,18:16:49:582
0.0327,-0.018,0.0249,52.92,5,1015.13,29,35.606,99006,18:16:50:583
0.052,-0.0321,0.0587,52.92,5,1015.12,29,35.294,100005,18:16:51:582
0.0148,-0.024,0.0519,52.92,5,1015.15,29,36.447,101005,18:16:52:582
0.0091,-0.0119,-0.0281,52.92,5,1015.37,29,35.805,102006,18:16:53:583
0.0284,-0.0126,0.0529,52.92,5,1015.34,29,35.993,103006,18:16:54:583
4.00E-04,0.0439,-0.046,52.92,5,1015.27,29,37.064,104006,18:16:55:583
-0.0286,-0.0086,-0.0192,52.92,5,1015.22,29,36.172,105006,18:16:56:583
0.013,0.0325,0,52.92,5,1015.18,29,36.006,106006,18:16:57:583
0.0817,0.0048,0.0667,52.92,5,1015.23,29,36.211,107006,18:16:58:583
0.017,-0.0239,0.0569,52.92,5,1015.23,29,35.116,108006,18:16:59:583
0.0375,-0.017,-0.0273,52.92,5,1015.18,29,35.798,109006,18:17:00:583
-0.0506,0.0222,0.0638,52.92,5,1015.17,29,34.736,110006,18:17:01:583
-0.0162,-0.0126,-0.0347,52.92,5,1015.15,29,35.585,111005,18:17:02:582
-0.0144,-0.0032,0.0106,52.92,5,1015.16,29,32.838,112006,18:17:03:583
0.0081,-0.0316,-0.0389,52.92,5,1015.17,28.9,33.898,113006,18:17:04:583
0.0015,0.0456,0.017,52.92,5,1015.16,28.9,44.934,114006,18:17:05:583
0.0454,0.0069,0.0246,52.92,5,1015.17,28.9,34.988,115006,18:17:06:583
0.0058,-0.0264,0.0176,52.92,5,1015.16,28.9,43.433,116006,18:17:07:583
-0.0075,0.0105,0.0176,52.92,5,1015.17,28.9,34.205,117006,18:17:08:583
-0.0389,-0.0282,0.0283,52.92,5,1015.27,28.9,33.372,118006,18:17:09:583
-0.0689,-0.0161,0.0189,52.92,5,1015.25,28.9,38.648,119006,18:17:10:583
0.0077,0.023,0.0567,52.92,5,1015.24,28.9,38.2,120005,18:17:11:582
0.021,-0.0078,0.0395,52.92,5,1015.22,28.9,40.661,121006,18:17:12:583
-0.0351,0.0546,0.0887,52.92,5,1015.21,28.9,39.194,122006,18:17:13:583
0.018,0.0494,-0.0515,52.92,5,1015.23,28.9,34.554,123005,18:17:14:582
-0.005,-0.0353,0.0325,52.92,5,1015.2,28.9,39.1,124006,18:17:15:583
-0.0235,0.0118,0.0603,52.92,5,1015.2,28.8,32.992,125005,18:17:16:582
0.0217,0.0273,-0.0346,52.92,5,1015.19,28.8,44.927,126006,18:17:17:583
-0.0053,-0.0092,0.0086,52.92,5,1015.18,28.8,31.119,127006,18:17:18:583
-0.0232,0.0106,0.0301,52.92,5,1015.2,28.8,32.853,128006,18:17:19:583
0.0691,0.0294,0.0851,52.92,5,1015.24,28.8,35.028,129006,18:17:20:583
0.0248,-0.0089,0.0303,52.92,5,1015.23,28.8,33.398,130005,18:17:21:582
-0.0232,0.0336,0.0644,52.92,5,1015.24,28.8,33.206,131006,18:17:22:583
0.028,-0.0472,-0.0792,52.92,5,1015.24,28.8,36.437,132005,18:17:23:582
0.0469,0.0293,0.0738,52.92,5,1015.25,28.8,36.569,133005,18:17:24:582
0.0267,0.0416,0.1218,52.92,5,1015.25,28.8,33.426,134005,18:17:25:582
-0.0045,0.0453,-0.0507,52.92,5,1015.24,28.8,33.717,135006,18:17:26:583
-0.0024,-0.0453,-0.003,52.92,5,1015.22,28.8,34.478,136005,18:17:27:582
0.0316,0.0333,-0.0093,52.92,5,1015.22,28.8,33.886,137005,18:17:28:582
0.027,-0.0145,-0.02,52.92,5,1015.22,28.7,34.345,138006,18:17:29:583
0.0063,-0.0181,-0.0142,52.92,5,1015.23,28.7,33.16,139006,18:17:30:583
0.003,0.012,0.0168,52.92,5,1015.24,28.7,34.635,140006,18:17:31:583
-0.0064,-0.0029,-0.0483,52.92,5,1015.28,28.7,33.127,141005,18:17:32:582
0.0375,0.0157,-0.0442,52.92,5,1015.28,28.7,33.668,142006,18:17:33:583
0.052,-0.0046,-0.0205,52.92,5,1015.27,28.7,33.553,143005,18:17:34:582
0.008,0.0324,0.0031,52.92,5,1015.27,28.7,33.682,144006,18:17:35:583
0.0115,-0.0104,-0.0274,52.92,5,1015.25,28.7,33.516,145006,18:17:36:583
-0.0227,-0.0011,-0.0206,33.39,5,1015.26,28.7,46.414,146005,18:17:37:582
0.0132,0.0415,0.0399,33.39,5,1015.24,28.7,36.828,147006,18:17:38:583
-0.0252,0.0164,0.0097,33.39,5,1015.22,28.7,35.63,148006,18:17:39:583
-0.0047,0.0221,0.0031,33.39,5,1015.24,28.7,38.289,149006,18:17:40:583
0.0217,0.0341,0.02,33.39,5,1015.24,28.7,36.675,150005,18:17:41:582
-0.0049,0.0112,0.0379,33.39,5,1015.26,28.7,34.861,151005,18:17:42:582
-0.0186,-0.0207,0.0202,33.39,5,1015.26,28.7,35.128,152006,18:17:43:583
0.0242,-0.0279,-0.0183,33.39,5,1015.24,28.6,34.857,153006,18:17:44:583
-0.028,0.0016,0.0556,33.39,5,1015.25,28.6,34.896,154005,18:17:45:582
-0.0039,0.0276,0.0219,33.39,5,1015.26,28.6,35.056,155006,18:17:46:583
0.041,0.0351,-0.0275,33.39,5,1015.23,28.6,34.757,156006,18:17:47:583
0.0143,-0.0085,0.0363,33.39,5,1015.23,28.6,34.834,157005,18:17:48:582
0.0684,-0.016,-0.0023,33.39,5,1015.21,28.6,34.482,158005,18:17:49:582
0.044,0.0108,-0.0326,33.39,5,1015.22,28.6,34.059,159006,18:17:50:583
0.0348,-0.0115,0.0132,49.52,5,1015.24,28.6,34.43,160005,18:17:51:582
-0.0248,-0.001,-0.0548,49.52,5,1015.24,28.6,34.76,161006,18:17:52:583
-0.0206,0.0261,0.0553,49.52,5,1015.23,28.6,34.203,162006,18:17:53:583
-0.0285,0.0171,0.0054,49.52,5,1015.21,28.6,34.434,163005,18:17:54:582
0.0613,-0.0488,0.0784,49.52,5,1015.23,28.6,33.637,164006,18:17:55:583
-0.0073,-0.0185,-0.0094,49.52,5,1015.23,28.6,34.42,165006,18:17:56:583
-0.0311,-9.00E-04,0.1064,49.52,5,1015.23,28.6,33.545,166005,18:17:57:582
-0.0045,0.0143,0.0333,49.52,5,1015.24,28.5,34.118,167006,18:17:58:583
-0.0362,-0.0083,0.0665,49.52,5,1015.22,28.5,32.501,168005,18:17:59:582
0.052,0.029,0.0245,49.52,5,1015.22,28.5,34.225,169006,18:18:00:583
-0.0436,0.0024,0.041,49.52,5,1015.24,28.5,32.348,170005,18:18:01:582
-0.0056,-0.0033,0.0106,49.52,5,1015.24,28.5,33.112,171006,18:18:02:583
-0.0346,0.01,0.1046,49.52,5,1015.25,28.5,37.178,172006,18:18:03:583
-0.0268,-0.0125,-0.0033,49.52,5,1015.26,28.5,36.577,173005,18:18:04:582
0.0167,0.0475,-0.0087,49.52,5,1015.29,28.5,31.372,174005,18:18:05:582
8.00E-04,0.0147,-0.0019,49.52,5,1015.27,28.5,35.946,175006,18:18:06:583
0.0167,-0.0141,-0.0011,49.52,5,1015.26,28.5,37.029,176006,18:18:07:583
0.013,0.0045,0.0256,49.52,5,1015.26,28.5,38.782,177006,18:18:08:583
0.005,-0.0244,0.0282,49.52,5,1015.27,28.5,38.292,178006,18:18:09:583
-0.0526,-0.0081,0.0212,49.52,5,1015.28,28.5,38.951,179005,18:18:10:582
0.042,0.0642,-0.0416,49.52,5,1015.25,28.5,35.439,180005,18:18:11:582
0.0192,-0.0082,0.0132,49.52,5,1015.26,28.5,37.464,181006,18:18:12:583
0.0654,-0.0479,-0.0352,49.52,5,1015.25,28.5,36.41,182006,18:18:13:583
-0.0657,0.0206,-0.0069,49.52,5,1015.27,28.5,36.522,183005,18:18:14:582
-0.0208,-0.0551,0.0375,49.52,5,1015.26,28.4,36.241,184006,18:18:15:583
0.0365,0.0155,-0.0164,49.52,5,1015.26,28.4,36.375,185006,18:18:16:583
0.0101,0.0038,0.0405,49.52,5,1015.27,28.4,36.786,186006,18:18:17:583
0.0082,-0.0569,0.0124,49.52,5,1015.27,28.4,38.285,187006,18:18:18:583
0.0111,-0.0111,-0.0495,49.52,5,1015.3,28.4,37.265,188006,18:18:19:583
-0.0722,0.0494,0.0584,49.52,5,1015.37,28.4,36.232,189005,18:18:20:582
-0.0221,0.0064,0.0166,49.52,5,1015.37,28.4,35.546,190006,18:18:21:583
0.0593,0.0193,0.0089,49.52,5,1015.34,28.4,36.207,191006,18:18:22:583
-0.0346,0.049,-0.0395,49.52,5,1015.33,28.4,36.164,192006,18:18:23:583
0.0284,-0.008,-0.055,49.52,5,1015.35,28.4,35.995,193006,18:18:24:583
0.0054,-0.0252,-0.0375,49.52,5,1015.32,28.4,35.15,194006,18:18:25:583
0.0098,0.029,0.0014,49.52,5,1015.32,28.4,32.405,195005,18:18:26:582
0.0631,0.0225,-0.0688,49.52,5,1015.32,28.4,33.805,196006,18:18:27:583
0.0619,-0.0275,0.0822,49.52,5,1015.31,28.4,33.433,197005,18:18:28:582
0.0165,0.05,-0.0523,49.52,5,1015.29,28.4,32.753,198005,18:18:29:582
-0.0132,-0.0404,0.0436,49.52,5,1015.29,28.4,34.216,199005,18:18:30:582
-0.0224,0.0438,0.0739,49.52,5,1015.3,28.4,34.519,200005,18:18:31:582
0.0311,-0.0099,-0.0306,49.52,5,1015.29,28.4,35.325,201006,18:18:32:583
-0.0211,0.0277,-0.0051,49.52,5,1015.3,28.4,36.08,202006,18:18:33:583
-0.0267,-0.0251,0.0244,49.52,5,1015.28,28.4,35.852,203005,18:18:34:582
-0.0372,-0.0474,0.0328,49.52,5,1015.28,28.4,36.606,204006,18:18:35:583
-0.0285,-0.0274,0.0646,49.52,5,1015.3,28.4,36.39,205005,18:18:36:582
-0.0198,-0.0314,-0.0079,49.52,5,1015.29,28.4,36.312,206006,18:18:37:583
0.0498,0.0368,-0.0085,49.52,5,1015.31,28.4,35.024,207006,18:18:38:583
-0.0432,-0.0351,-0.0248,49.52,5,1015.31,28.4,35.539,208005,18:18:39:582
-0.0025,0.0313,0.0138,49.52,5,1015.29,28.3,35.039,209006,18:18:40:583
-0.002,-5.00E-04,0.0377,49.52,5,1015.3,28.3,34.307,210006,18:18:41:583
0.0365,0.0038,-0.0108,49.52,5,1015.31,28.3,32.861,211006,18:18:42:583
-0.0527,-0.0196,0.0571,49.52,5,1015.31,28.3,31.284,212006,18:18:43:583
0.0057,-0.0518,0.0129,49.52,5,1015.29,28.3,31.8,213005,18:18:44:582
-0.0258,-0.0262,0.0689,49.52,5,1015.32,28.3,31.897,214006,18:18:45:583
0.0021,-0.0237,0.0181,49.52,5,1015.29,28.3,31.945,215006,18:18:46:583
-0.0242,0.0098,-0.0401,49.52,5,1015.3,28.3,32.362,216005,18:18:47:582
-0.0184,0.0592,0.0773,49.52,5,1015.3,28.3,32.397,217005,18:18:48:582
-0.0135,1.00E-04,-0.0028,49.52,5,1015.31,28.3,33.861,218006,18:18:49:583
-0.0377,0.0274,-9.00E-04,49.52,5,1015.28,28.3,33.971,219006,18:18:50:583
-0.0175,0.0078,-0.0303,49.52,5,1015.3,28.3,34.787,220006,18:18:51:583
-0.0369,0.0246,0.0526,49.52,5,1015.33,28.3,35.417,221006,18:18:52:583
-0.005,0.0132,0.0143,49.52,5,1015.3,28.3,35.271,222006,18:18:53:583
-0.034,0.0053,-0.0019,49.52,5,1015.32,28.3,35.906,223006,18:18:54:583
0.0195,-0.0055,-0.0148,49.52,5,1015.32,28.3,36.233,224006,18:18:55:583
0.01,0.0592,0.0383,49.52,5,1015.29,28.3,36.025,225005,18:18:56:582
0.013,0.0206,-0.0472,49.52,5,1015.31,28.3,36.322,226005,18:18:57:582
-0.0236,-3.00E-04,0.0394,49.52,5,1015.29,28.3,38.992,227006,18:18:58:583
-0.0152,0.0168,-0.0285,49.52,5,1015.29,28.3,36.163,228006,18:18:59:583
-0.0439,0.0129,0.0082,49.52,5,1015.32,28.3,34.132,229006,18:19:00:583
-0.0361,1.00E-04,0.0075,49.52,5,1015.31,28.3,34.694,230006,18:19:01:583
-0.0118,-0.006,-0.0743,49.52,5,1015.34,28.3,33.765,231006,18:19:02:583
-0.0174,0.0317,0.0125,49.52,5,1015.34,28.3,36.75,232007,18:19:03:584
0.056,0.0055,-0.032,49.52,5,1015.34,28.3,34.888,233006,18:19:04:583
0.0174,-0.0372,-0.0125,49.52,5,1015.33,28.3,35.01,234006,18:19:05:583
0.0395,0.0084,-0.0579,49.52,5,1015.31,28.3,35.563,235006,18:19:06:583
-0.0577,0.0217,-0.0074,49.52,5,1015.31,28.3,31.68,236005,18:19:07:582
-0.0425,-0.0554,-0.0025,49.52,5,1015.3,28.2,31.614,237005,18:19:08:582
-0.0558,0.0084,-0.031,49.52,5,1015.3,28.2,33.083,238006,18:19:09:583
0.0472,0.0148,0.0797,49.52,5,1015.3,28.2,32.929,239006,18:19:10:583
-0.0131,-0.0088,0.0256,49.52,5,1015.32,28.2,33.332,240006,18:19:11:583
0.0922,-0.0078,0.077,49.52,5,1015.32,28.2,40.173,241005,18:19:12:582
0.0271,0.0059,0.0074,49.52,5,1015.32,28.2,35.97,242005,18:19:13:582
0.021,-0.0159,-0.0213,49.52,5,1015.32,28.2,36.731,243006,18:19:14:583
-0.0155,-0.0854,-0.0528,49.52,5,1015.31,28.2,40.493,244008,18:19:15:585
0.0533,0.0017,-0.0558,49.52,5,1015.31,28.2,40.15,245006,18:19:16:583
0.0197,-0.1078,-0.1081,49.52,5,1015.33,28.2,39.647,246006,18:19:17:583
0.0447,-0.0011,-0.0049,49.52,5,1015.34,28.2,36.345,247006,18:19:18:583
0.046,-0.0397,0.0074,49.52,5,1015.33,28.2,36.38,248005,18:19:19:582
-0.0073,-0.0172,0.0326,49.52,5,1015.32,28.2,35.102,249005,18:19:20:582
-0.0115,-0.0151,0.0233,49.52,5,1015.34,28.2,37.848,250005,18:19:21:582
-0.044,0.0051,0.0825,49.52,5,1015.37,28.2,34.353,251006,18:19:22:583
0.0291,0.0146,-0.0206,49.52,5,1015.35,28.2,35.094,252006,18:19:23:583
0,0.0152,0.0078,49.52,5,1015.34,28.2,34.909,253005,18:19:24:582
-0.0103,0.0217,0.0361,49.52,5,1015.37,28.2,33.017,254006,18:19:25:583
-0.0087,-0.0219,0.03,49.52,5,1015.38,28.2,34.742,255006,18:19:26:583
0.0232,0.0237,0.0018,49.52,5,1015.37,28.2,32.241,256006,18:19:27:583
0.0618,-0.0021,-0.0066,49.52,5,1015.38,28.2,44.313,257006,18:19:28:583
0.0246,0.028,0.0344,49.52,5,1015.4,28.2,32.908,258006,18:19:29:583
0.0235,0.0461,-0.0316,49.52,5,1015.42,28.2,32.862,259005,18:19:30:582
-0.0171,-0.0303,0.0517,49.52,5,1015.45,28.2,32.716,260005,18:19:31:582
-0.0175,-0.0016,-0.0096,49.52,5,1015.43,28.2,34.534,261006,18:19:32:583
0.0188,0.0024,0.0363,49.52,5,1015.42,28.2,33.281,262005,18:19:33:582
-0.0277,-0.0467,4.00E-04,49.52,5,1015.42,28.2,34.966,263005,18:19:34:582
0.014,-0.009,-0.0513,49.52,5,1015.4,28.2,35.154,264006,18:19:35:583
0.0527,-0.0034,-0.0616,49.52,5,1015.38,28.2,35.394,265006,18:19:36:583
-0.0068,-0.0196,0.0311,49.52,5,1015.34,28.2,35.112,266006,18:19:37:583
0.0261,0.0236,-0.034,49.52,5,1015.35,28.2,37.17,267006,18:19:38:583
0.0322,0.0557,-0.0098,49.52,5,1015.36,28.1,36.434,268006,18:19:39:583
0.0357,-0.0197,-0.0033,49.52,5,1015.33,28.1,36.191,269005,18:19:40:582
-0.0319,-0.0904,-0.0438,49.52,5,1015.34,28.1,37.421,270005,18:19:41:582
-0.021,-0.0199,0.0264,49.52,5,1015.32,28.1,37.857,271006,18:19:42:583
-0.0116,0.012,-0.031,49.52,5,1015.34,28.1,36.345,272006,18:19:43:583
0.0131,-0.0204,0.0794,49.52,5,1015.32,28.1,36.114,273006,18:19:44:583
-0.0114,3.00E-04,-0.0439,49.52,5,1015.36,28.1,36.372,274006,18:19:45:583
0.0113,-0.0386,0.0079,49.52,5,1015.36,28.1,37.265,275006,18:19:46:583
-0.0126,0.0185,-0.0283,49.52,5,1015.35,28.1,37.05,276005,18:19:47:582
-0.0324,-0.0228,-0.0295,49.52,5,1015.37,28.1,36.446,277006,18:19:48:583
-0.0035,0.0483,0.0417,49.52,5,1015.38,28.1,36.443,278005,18:19:49:582
0.0703,0.0397,-0.0487,49.52,5,1015.38,28.1,36.537,279005,18:19:50:582
-0.0056,-0.0341,-0.0147,49.52,5,1015.37,28.1,34.985,280006,18:19:51:583
-0.0573,0.0446,-0.007,49.52,5,1015.38,28.1,34.104,281005,18:19:52:582
-0.0037,0.0442,5.00E-04,49.52,5,1015.39,28.1,36.27,282006,18:19:53:583
0.0013,0.0351,-0.0808,49.52,5,1015.39,28.1,35.007,283006,18:19:54:583
1.00E-04,-0.0357,-0.0398,49.52,5,1015.41,28.1,34.288,284005,18:19:55:582
-0.0258,2.00E-04,0.0295,49.52,5,1015.41,28.1,40.269,285005,18:19:56:582
-0.0331,-0.0322,0.0082,49.52,5,1015.4,28.1,34.291,286006,18:19:57:583
0.0024,0.0094,0.0454,49.52,5,1015.41,28.1,33.435,287006,18:19:58:583
0.0447,-0.0115,-0.0441,49.52,5,1015.43,28.1,34.603,288008,18:19:59:585
-0.0184,0.017,-0.042,49.52,5,1015.43,28.1,33.237,289006,18:20:00:583
-0.0096,0.0027,0.0515,49.52,5,1015.4,28.1,34.141,290006,18:20:01:583
-0.0288,-0.0196,0.0581,49.52,5,1015.42,28.1,32.971,291005,18:20:02:582
-0.0333,0.0166,-0.0305,49.52,5,1015.42,28.1,33.322,292006,18:20:03:583
0.0509,0.0168,0.0346,49.52,5,1015.4,28.1,34.468,293005,18:20:04:582
-0.0269,-0.0139,-0.0338,49.52,5,1015.42,28.1,33.912,294005,18:20:05:582
-0.0015,-0.0077,-0.0242,49.52,5,1015.4,28.1,33.392,295006,18:20:06:583
-0.0283,-0.0238,0.0196,49.52,5,1015.4,28.1,32.1,296006,18:20:07:583
0.0583,-0.0301,-0.0097,49.52,5,1015.38,28.1,34.432,297005,18:20:08:582
-0.05,0.0289,-0.0172,49.52,5,1015.41,28.1,32.069,298005,18:20:09:582
0.0371,0.0267,9.00E-04,49.52,5,1015.39,28.1,32.338,299005,18:20:10:582
-0.0208,-0.0213,-0.0143,49.52,5,1015.39,28.1,31.565,300006,18:20:11:583
-0.0042,-0.0081,-0.0307,49.52,5,1015.39,28.1,34.404,301006,18:20:12:583
0.0176,-2.00E-04,-0.0456,49.52,5,1015.37,28,36.757,302005,18:20:13:582
0.0331,0.024,0.0059,49.52,5,1015.37,28,32.449,303006,18:20:14:583
0.025,0.01,-0.0496,49.52,5,1015.37,28,33.901,304006,18:20:15:583
-0.0025,-0.029,-0.0196,49.52,5,1015.38,28,32.545,305005,18:20:16:582
-0.0104,-0.0234,-0.0073,49.52,5,1015.39,28,31.633,306005,18:20:17:582
9.00E-04,0.0316,-0.0373,49.52,5,1015.41,28,32.754,307006,18:20:18:583
0.0241,0.0052,-0.0391,49.52,5,1015.38,28,34.458,308005,18:20:19:582
-0.0032,0.0164,0.0083,49.52,5,1015.38,28,33.905,309006,18:20:20:583
0.0259,0.0306,0.0059,49.52,5,1015.4,28,33.896,310006,18:20:21:583
-0.0207,0.0271,-0.0382,49.52,5,1015.39,28,34.58,311006,18:20:22:583
-0.0292,0.0076,0.0105,49.52,5,1015.4,28,32.657,312005,18:20:23:582
0.0796,-0.016,-0.0678,49.52,5,1015.4,28,31.847,313005,18:20:24:582
0.0072,-0.025,0.0435,49.52,5,1015.37,28,33.509,314006,18:20:25:583
0.0146,0.0425,-0.0706,49.52,5,1015.39,28,33.526,315006,18:20:26:583
0.0035,0.0061,0.0214,49.52,5,1015.4,28,34.726,316006,18:20:27:583
0.0113,0.0508,0.0114,49.52,5,1015.39,28,35.583,317006,18:20:28:583
0.0676,0.0238,0.036,49.52,5,1015.38,28,34.381,318005,18:20:29:582
-0.0296,-0.002,0.0335,49.52,5,1015.41,28,35.28,319005,18:20:30:582
-0.0477,-0.0157,-0.0626,49.52,5,1015.42,28,35.291,320005,18:20:31:582
0.0551,-0.0358,-0.022,49.52,5,1015.41,28,35.573,321006,18:20:32:583
0.0104,-0.0013,-0.0215,49.52,5,1015.45,28,37.288,322006,18:20:33:583
0.0458,0.0073,0.0359,49.52,5,1015.41,28,36.694,323005,18:20:34:582
0.0614,-0.0447,-0.0639,49.52,5,1015.4,28,39.825,324006,18:20:35:583
0.0199,0.0607,-0.061,49.52,5,1015.41,28,35.658,325006,18:20:36:583
0.0236,-5.00E-04,0.0058,49.52,5,1015.4,28,38.436,326006,18:20:37:583
-0.0148,0.0197,0.0198,49.52,5,1015.43,28,36.086,327005,18:20:38:582
-0.0139,-0.0407,-0.0593,49.52,5,1015.42,28,36.447,328006,18:20:39:583
0.0214,0.0384,-0.0723,49.52,5,1015.45,28,36.495,329006,18:20:40:583
-0.0582,-0.0384,-0.0732,49.52,5,1015.42,28,36.232,330006,18:20:41:583
-0.0411,0.019,-0.0033,49.52,5,1015.44,28,37.741,331006,18:20:42:583
-0.0061,0.0528,0.0444,49.52,5,1015.46,28,36.937,332006,18:20:43:583
-0.0692,-0.0702,0.0458,49.52,5,1015.49,28,36.53,333005,18:20:44:582
-0.0014,-0.0132,0.0434,49.52,5,1015.48,28,36.068,334005,18:20:45:582
-0.0179,-0.0053,0.0199,49.52,5,1015.5,28,37.982,335006,18:20:46:583
0.0183,0.036,-0.0355,49.52,5,1015.5,28,37.452,336006,18:20:47:583
0.0052,-0.0145,0.0607,49.52,5,1015.49,28,45.375,337006,18:20:48:583
0.008,0.0492,0.0153,49.52,5,1015.5,27.9,38.426,338006,18:20:49:583
-0.0245,0.0318,-0.0085,49.52,5,1015.5,27.9,38.809,339006,18:20:50:583
-0.1094,-0.0534,0.0632,49.52,5,1015.47,27.9,36.729,340006,18:20:51:583
-0.0203,0.012,-0.0147,49.52,5,1015.45,27.9,35.726,341006,18:20:52:583
0.0259,0.0292,0.046,49.52,5,1015.44,27.9,35.056,342006,18:20:53:583
-0.0105,-0.0158,0.0311,49.52,5,1015.41,27.9,34.129,343006,18:20:54:583
0.03,-0.0124,-0.0341,49.52,5,1015.41,27.9,32.938,344006,18:20:55:583
0.0329,0.016,-0.0437,49.52,5,1015.43,27.9,36.072,345006,18:20:56:583
0.0068,0.0178,0.0265,49.52,5,1015.4,27.9,33.297,346005,18:20:57:582
0.0891,0.0232,0.0048,49.52,5,1015.42,27.9,33.967,347005,18:20:58:582
0.0147,0.0145,0.0761,49.52,5,1015.41,27.9,35.293,348006,18:20:59:583
-0.003,0.0011,-0.0332,49.52,5,1015.41,27.9,36.072,349006,18:21:00:583
0.0446,-0.0037,0.11,49.52,5,1015.68,27.9,36.004,350007,18:21:01:584
0.0034,-0.0386,-0.0144,49.52,5,1015.76,27.9,36.813,351005,18:21:02:582
-0.0211,-0.016,-0.012,49.52,5,1016.06,28,36.899,352005,18:21:03:582
0.0394,0.0527,0.0023,49.52,5,1016.17,28,36.625,353006,18:21:04:583
-0.0326,-0.0091,-0.0201,49.52,5,1016.31,28.1,36.972,354006,18:21:05:583
-0.0039,-0.0026,-0.0349,49.52,5,1016.2,28.2,35.86,355006,18:21:06:583
0.0475,0.0182,-0.0926,49.52,5,1016.08,28.2,34.228,356005,18:21:07:582
-0.0576,-0.0067,-0.0153,49.52,5,1015.94,28.2,35.116,357006,18:21:08:583
-9.00E-04,-0.0198,0.0015,49.52,5,1015.77,28.2,33.346,358006,18:21:09:583
-0.0353,-0.0124,0.0505,49.52,5,1015.7,28.3,32.686,359005,18:21:10:582
-0.0122,0.0272,-0.0448,49.52,5,1015.8,28.3,35.151,360006,18:21:11:583
-0.001,0.0067,0.0273,49.52,5,1015.65,28.3,33.356,361006,18:21:12:583
-0.0231,0.0123,8.00E-04,49.52,5,1015.54,28.3,34.112,362005,18:21:13:582
0.0024,0.0021,0.0411,49.52,5,1015.43,28.3,36.351,363006,18:21:14:583
-0.0123,-0.0336,-0.0544,49.52,5,1015.37,28.3,37.365,364005,18:21:15:582
-0.0303,-0.0411,0.0356,49.52,5,1015.52,28.3,36.735,365005,18:21:16:582
-0.0124,0.0374,0.0389,49.52,5,1015.58,28.3,36.51,366006,18:21:17:583
-0.0254,0.0572,0.0936,49.52,5,1015.48,28.3,40.879,367005,18:21:18:582
-0.0725,0.0737,-0.0872,49.52,5,1015.38,28.3,38.633,368005,18:21:19:582
0.0203,0.07,0.0407,49.52,5,1015.32,28.3,37.366,369006,18:21:20:583
-0.0017,-0.0435,0.0485,49.52,5,1015.29,28.3,37.705,370006,18:21:21:583
0.0306,0.0349,1.00E-04,49.52,5,1015.33,28.3,36.43,371005,18:21:22:582
-0.0146,0.0386,-0.0121,49.52,5,1015.51,28.3,33.7,372005,18:21:23:582
-0.0092,-0.0033,0.0173,49.52,5,1015.48,28.3,34.12,373005,18:21:24:582
0.0392,-0.0593,0.0356,49.52,5,1015.42,28.3,34.896,374006,18:21:25:583
0.0194,0.0212,-0.0585,49.52,5,1015.36,28.3,36.395,375006,18:21:26:583
-0.0186,-0.0563,-0.0343,49.52,5,1015.34,28.3,34.501,376006,18:21:27:583
0.0147,-0.0249,-0.0685,49.52,5,1015.33,28.2,34.758,377005,18:21:28:582
-0.0045,0.0424,-0.0024,49.52,5,1015.42,28.2,35.199,378005,18:21:29:582
-0.0097,0.0208,0.0698,49.52,5,1015.5,28.2,34.874,379005,18:21:30:582
-0.0097,-0.0262,-0.0343,49.52,5,1015.44,28.2,35.381,380006,18:21:31:583
0.0191,0.0073,0.008,49.52,5,1015.41,28.2,36.598,381006,18:21:32:583
0.0039,0.0651,-0.0087,49.52,5,1015.38,28.2,36.069,382006,18:21:33:583
0.0143,0.0043,0.0114,49.52,5,1015.38,28.2,37.03,383006,18:21:34:583
-0.0232,-0.0119,0.0102,49.52,5,1015.4,28.2,35.572,384006,18:21:35:583
-0.0249,-0.0501,-0.0762,49.52,5,1015.55,28.2,35.944,385006,18:21:36:583
-0.0225,0.0382,0.0378,49.52,5,1015.65,28.2,35.14,386005,18:21:37:582
0.0243,-0.0108,-0.0314,49.52,5,1015.7,28.3,35.073,387005,18:21:38:582
-0.0263,0.0309,0.004,49.52,5,1015.83,28.3,34.345,388006,18:21:39:583
5.00E-04,-0.0062,0.0285,49.52,5,1015.92,28.3,36.367,389005,18:21:40:582
0.0488,0.0373,0.0143,49.52,5,1015.81,28.4,35.62,390005,18:21:41:582
-0.0394,0.0046,-0.0228,49.52,5,1015.61,28.4,33.424,391006,18:21:42:583
0.0158,0.0098,0.0447,49.52,5,1015.46,28.4,34.354,392006,18:21:43:583
-0.0056,0.0048,-0.0629,49.52,5,1015.36,28.4,34.454,393006,18:21:44:583
0.0755,-0.0307,0.0147,49.52,5,1015.3,28.4,34.276,394006,18:21:45:583
-0.0151,0.0164,0.0178,49.52,5,1015.29,28.3,34.229,395006,18:21:46:583
0.0163,-0.0347,0.0264,49.52,5,1015.35,28.3,35.347,396005,18:21:47:582
0.056,0.0126,-0.0296,49.52,5,1015.3,28.3,34.908,397006,18:21:48:583
-0.0244,0.004,-0.0482,49.52,5,1015.25,28.3,33.642,398005,18:21:49:582
-0.0175,0.0073,-0.0086,49.52,5,1015.24,28.3,35.667,399005,18:21:50:582
-0.0307,-0.0186,0.04,49.52,5,1015.24,28.3,37.518,400005,18:21:51:582
0.0265,-0.0349,0.0389,49.52,5,1015.39,28.3,35.152,401006,18:21:52:583
-0.0219,0.0013,-0.0174,49.52,5,1015.5,28.2,37.269,402005,18:21:53:582
-0.0073,-0.0184,-0.0445,49.52,5,1015.57,28.3,36.409,403005,18:21:54:582
-0.0555,-0.02,-0.0094,49.52,5,1015.6,28.3,35.72,404006,18:21:55:583
0.0175,3.00E-04,-0.0455,49.52,5,1015.74,28.3,36.846,405005,18:21:56:582
-0.0107,-0.0015,0.0223,49.52,5,1015.79,28.3,36.69,406005,18:21:57:582
0.0284,-0.0368,0.0481,49.52,5,1015.67,28.4,36.864,407006,18:21:58:583
0.0362,0.0203,-0.0511,49.52,5,1015.52,28.4,36.461,408006,18:21:59:583
-0.0363,-0.0052,-0.0211,49.52,5,1015.37,28.4,37.114,409006,18:22:00:583
0.0361,0.0562,0.0209,49.52,5,1015.27,28.4,36.426,410005,18:22:01:582
-0.0135,0.0516,0.0242,49.52,5,1015.26,28.3,35.596,411006,18:22:02:583
0.0267,-0.0324,0.089,49.52,5,1015.28,28.3,35.533,412006,18:22:03:583
0.0521,0.0155,0.0054,49.52,5,1015.41,28.3,36.737,413006,18:22:04:583
0.0196,0.0235,-0.0234,49.52,5,1015.5,28.3,37.164,414005,18:22:05:582
-0.047,0.0219,-0.0379,49.52,5,1015.56,28.3,36.427,415006,18:22:06:583
0.0111,0.0299,0.0759,49.52,5,1015.65,28.3,44.702,416009,18:22:07:586
0.0154,0.0258,-0.0341,49.52,5,1015.76,28.4,34.852,417005,18:22:08:582
-0.0495,0.0223,0.0481,49.52,5,1015.76,28.4,35.804,418005,18:22:09:582
-0.0049,-0.0144,0.0429,49.52,5,1015.67,28.4,35.349,419006,18:22:10:583
-0.0216,0.0172,0.045,49.52,5,1015.49,28.4,35.991,420005,18:22:11:582
-0.0107,-0.0353,0.004,49.52,5,1015.35,28.4,34.376,421005,18:22:12:582
-0.052,0.0374,-0.0421,49.52,5,1015.27,28.4,34.844,422006,18:22:13:583
-0.0492,-0.035,-0.0093,49.52,5,1015.22,28.4,36.349,423008,18:22:14:585
0.0365,0.0195,0.0383,49.52,5,1015.31,28.4,34.972,424005,18:22:15:582
-0.0073,0.0196,-0.022,49.52,5,1015.36,28.4,36.612,425006,18:22:16:583
-0.0334,-0.0148,0.0352,49.52,5,1015.32,28.4,37.03,426006,18:22:17:583
-0.05,-0.0344,0.0116,49.52,5,1015.25,28.3,49.462,427006,18:22:18:583
-0.0234,-0.0434,0.0357,49.52,5,1015.2,28.3,37.213,428006,18:22:19:583
0.0285,-0.0049,0.0724,49.52,5,1015.2,28.3,36.943,429005,18:22:20:582
-0.0712,0.0167,-0.0015,49.52,5,1015.23,28.3,35.602,430006,18:22:21:583
0.025,-0.0274,-0.0592,49.52,5,1015.22,28.3,39.62,431006,18:22:22:583
0.0438,-0.0341,0.0427,49.52,5,1015.21,28.3,34.441,432006,18:22:23:583
-0.0149,0.0334,-0.0596,49.52,5,1015.21,28.3,34.528,433006,18:22:24:583
0.0372,0.0142,0.0585,49.52,5,1015.25,28.2,34.271,434005,18:22:25:582
0.0136,-0.0058,-0.0111,49.52,5,1015.32,28.2,34.919,435005,18:22:26:582
-0.0024,0.0326,-0.0782,49.52,5,1015.45,28.2,35.843,436006,18:22:27:583
0.003,0.0358,0.0066,49.52,5,1015.55,28.2,32.9,437005,18:22:28:582
-0.0159,-0.0349,0.0416,49.52,5,1015.72,28.2,34.599,438005,18:22:29:582
-0.0062,-0.0119,-0.0566,49.52,5,1015.73,28.3,34.789,439007,18:22:30:584
0.0181,-0.0079,-0.0637,49.52,5,1015.61,28.3,33.87,440005,18:22:31:582
0.0379,0.0143,0.0478,49.52,5,1015.6,28.3,47.493,441006,18:22:32:583
-0.0227,0.0426,0.0269,49.52,5,1015.49,28.3,42.386,442007,18:22:33:584
-0.0201,0.0269,0.0046,49.52,5,1015.38,28.3,43.839,443005,18:22:34:582
-0.0029,-0.0342,0.0269,49.52,5,1015.33,28.3,46.97,444005,18:22:35:582
-0.0081,-0.0163,0.0473,49.52,5,1015.44,28.3,39.918,445006,18:22:36:583
-0.0332,0.0181,-0.0339,49.52,5,1015.56,28.3,39.505,446005,18:22:37:582
0.0421,-0.0036,0.046,49.52,5,1015.63,28.3,35.975,447005,18:22:38:582
-0.0161,0.0239,-0.0153,49.52,5,1015.65,28.3,37.517,448006,18:22:39:583
0.0251,0.0105,0.0026,49.52,5,1015.69,28.3,36.846,449005,18:22:40:582
0.0117,-0.0184,0.011,49.52,5,1015.67,28.4,36.001,450006,18:22:41:583
-0.0493,0.0247,-0.0393,49.52,5,1015.67,28.4,36.261,451006,18:22:42:583
0.0263,-0.0134,0.0032,49.52,5,1015.68,28.4,37.179,452005,18:22:43:582
-0.048,0.0347,0.0663,49.52,5,1015.72,28.4,36.809,453006,18:22:44:583
0.0079,-0.0334,-0.0215,49.52,5,1015.8,28.4,35.884,454006,18:22:45:583
0.0078,-0.0184,0.0192,49.52,5,1015.77,28.5,36.23,455006,18:22:46:583
0.0144,-0.0498,-0.0659,49.52,5,1015.7,28.5,36.143,456005,18:22:47:582
0.0688,-0.0159,0.0397,49.52,5,1015.57,28.5,36.179,457006,18:22:48:583
-5.00E-04,0.0175,-0.0181,49.52,5,1015.37,28.5,35.919,458006,18:22:49:583
0.0089,-0.044,-0.1198,49.52,5,1015.25,28.5,37.048,459005,18:22:50:582
0.0391,0.0055,0.0186,49.52,5,1015.19,28.5,35.154,460006,18:22:51:583
0.0525,0.017,0.0143,49.52,5,1015.17,28.5,35.284,461006,18:22:52:583
0.0084,-0.0122,0.0697,49.52,5,1015.24,28.4,36.535,462006,18:22:53:583
-0.0252,0.0043,0.0372,49.52,5,1015.37,28.4,35.511,463006,18:22:54:583
0.0496,0.0091,-0.007,49.52,5,1015.46,28.4,32.28,464005,18:22:55:582
-0.001,0.0467,-0.0151,49.52,5,1015.54,28.4,32.78,465005,18:22:56:582
-0.0188,-1.00E-04,0.0246,49.52,5,1015.56,28.4,33.48,466006,18:22:57:583
0.005,-0.0395,0.045,49.52,5,1015.61,28.5,31.193,467005,18:22:58:582
0.059,0.0132,0.0355,49.52,5,1015.72,28.5,33.339,468006,18:22:59:583
-0.0023,0.0092,-0.0201,49.52,5,1015.78,28.5,36.116,469005,18:23:00:582
0.0182,-0.013,-2.00E-04,49.52,5,1015.76,28.5,32.761,470005,18:23:01:582
-0.0067,0.0252,0.0052,49.52,5,1015.64,28.6,33.357,471005,18:23:02:582
-0.0105,-0.0035,0.0395,49.52,5,1015.44,28.6,35.665,472006,18:23:03:583
0.0109,-0.0193,0.0278,49.52,5,1015.29,28.6,36.777,473006,18:23:04:583
0.0371,-0.0655,0.0041,49.52,5,1015.22,28.5,38.28,474006,18:23:05:583
-0.0086,-0.0167,0.0263,49.52,5,1015.2,28.5,34.395,475006,18:23:06:583
0.0147,-0.0206,0.0504,49.52,5,1015.28,28.5,35.325,476005,18:23:07:582
0.0225,0.0096,0.0414,49.52,5,1015.24,28.5,38.314,477006,18:23:08:583
0.0321,-0.0374,0.0229,49.52,5,1015.2,28.5,36.144,478006,18:23:09:583
-0.0097,-0.0133,0.0158,49.52,5,1015.16,28.4,35.526,479006,18:23:10:583
-0.0483,0.0177,0.0288,49.52,5,1015.16,28.4,34.54,480006,18:23:11:583
-0.002,-0.0164,0.0076,49.52,5,1015.21,28.4,34.619,481005,18:23:12:582
0.0146,0.0034,-0.015,49.52,5,1015.34,28.4,33.65,482006,18:23:13:583
0.07,-0.0054,0.0068,49.52,5,1015.3,28.4,33.536,483005,18:23:14:582
-0.0348,-0.0023,0.0395,49.52,5,1015.29,28.4,32.707,484006,18:23:15:583
0.0205,0.0167,0.0013,49.52,5,1015.26,28.3,31.126,485006,18:23:16:583
-0.0034,-0.012,1.00E-04,49.52,5,1015.26,28.3,32.117,486005,18:23:17:582
-0.0041,0.0056,0.0078,49.52,5,1015.31,28.3,31.756,487005,18:23:18:582
-0.0113,0.0018,0.083,49.52,5,1015.33,28.3,31.148,488006,18:23:19:583
-0.0569,-0.0374,-0.0176,49.52,5,1015.28,28.3,33.183,489006,18:23:20:583
0.0209,0,0.0099,49.52,5,1015.27,28.3,34.545,490006,18:23:21:583
-0.0464,0.0223,0.0147,49.52,5,1015.28,28.3,34.691,491006,18:23:22:583
-0.0264,0.0348,0.0135,49.52,5,1015.33,28.3,34.314,492005,18:23:23:582
-0.037,0.0293,0.0608,49.52,5,1015.4,28.2,35.678,493006,18:23:24:583
-0.059,-0.0252,0.0677,49.52,5,1015.36,28.2,35.57,494005,18:23:25:582
0.0128,-0.0169,-0.007,49.52,5,1015.33,28.2,35.875,495006,18:23:26:583
0.0405,-0.0023,0.0358,49.52,5,1015.3,28.2,34.925,496006,18:23:27:583
0.0234,-0.0279,0.0176,49.52,5,1015.28,28.2,34.857,497006,18:23:28:583
-0.0289,-0.0397,-0.0362,49.52,5,1015.32,28.2,34.568,498005,18:23:29:582
-0.019,-0.0029,0.0389,49.52,5,1015.35,28.2,33.816,499006,18:23:30:583
0.0242,0.0363,-0.008,49.52,5,1015.35,28.2,39.805,500006,18:23:31:583
-0.0034,0.0269,0.0769,49.52,5,1015.3,28.2,36.323,501006,18:23:32:583
-0.0116,-0.022,0.0026,49.52,5,1015.27,28.2,40.83,502006,18:23:33:583
0.0345,0.044,-0.0197,49.52,5,1015.28,28.2,34.324,503006,18:23:34:583
0.0156,-0.0368,0.0097,49.52,5,1015.43,28.2,34.401,504006,18:23:35:583
0.0283,0.0032,0.012,49.52,5,1015.59,28.2,33.182,505005,18:23:36:582
-0.0497,-0.0097,-0.0546,49.52,5,1015.51,28.2,33.47,506006,18:23:37:583
-0.0215,0.0351,-0.0136,49.52,5,1015.46,28.2,32.045,507006,18:23:38:583
-0.0452,-0.0293,0.0494,49.52,5,1015.39,28.2,33.678,508005,18:23:39:582
-0.0077,-0.0476,-0.0278,49.52,5,1015.36,28.2,34.75,509006,18:23:40:583
0.0217,0.0044,-0.0275,49.52,5,1015.36,28.2,33.307,510010,18:23:41:587
-0.0024,0.0255,-0.0114,49.52,5,1015.4,28.2,32.921,511006,18:23:42:583
-0.0247,-0.0381,0.0216,49.52,5,1015.38,28.2,33.388,512006,18:23:43:583
-0.0432,0.0173,-0.0374,49.52,5,1015.34,28.2,35.775,513006,18:23:44:583
-0.0226,0.0302,0.0467,49.52,5,1015.32,28.2,38.704,514006,18:23:45:583
-0.0201,-0.0065,-0.0359,49.52,5,1015.33,28.2,34.962,515006,18:23:46:583
-0.0332,-0.0134,-0.0725,49.52,5,1015.38,28.1,35.208,516005,18:23:47:582
0.0545,0.0018,0.0478,49.52,5,1015.6,28.1,34.768,517008,18:23:48:585
-0.0202,-0.0404,-0.026,49.52,5,1015.55,28.2,35.074,518005,18:23:49:582
-0.0462,0.0106,-0.0046,49.52,5,1015.47,28.2,35.332,519006,18:23:50:583
-0.0092,-0.008,-0.0288,49.52,5,1015.4,28.2,34.465,520006,18:23:51:583
-0.0432,0.0444,0.0396,49.52,5,1015.37,28.2,34.153,521005,18:23:52:582
-0.0227,-0.0064,0.0152,49.52,5,1015.35,28.2,35.22,522005,18:23:53:582
0.067,0.0266,-0.0517,49.52,5,1015.35,28.2,33.763,523006,18:23:54:583
-0.0461,-0.007,-0.0536,49.52,5,1015.32,28.1,32.65,524005,18:23:55:582
0.0507,0.0011,-0.0487,49.52,5,1015.33,28.1,31.983,525005,18:23:56:582
-0.0175,0.0576,0.0379,49.52,5,1015.31,28.1,41.332,526006,18:23:57:583
-0.0228,-0.011,-0.0113,49.52,5,1015.3,28.1,40.59,527006,18:23:58:583
0.0206,0.0262,-0.0242,49.52,5,1015.42,28.1,31.652,528006,18:23:59:583
-0.023,-0.0414,-0.0456,49.52,5,1015.41,28.1,39.621,529006,18:24:00:583
-0.027,-0.0091,-0.108,49.52,5,1015.4,28.1,38.866,530006,18:24:01:583
0.0364,0.0746,-0.0751,49.52,5,1015.38,28.1,35.12,531005,18:24:02:582
-0.0177,-0.0419,0.0192,49.52,5,1015.35,28.1,34.667,532005,18:24:03:582
-0.0089,-0.0391,-0.0162,49.52,5,1015.45,28.1,36.378,533006,18:24:04:583
0.0271,0.0259,0.0452,49.52,5,1015.61,28.1,37.978,534005,18:24:05:582
0.0215,0.0216,0,49.52,5,1015.56,28.1,34.806,535005,18:24:06:582
-0.0289,0.0178,-0.001,49.52,5,1015.48,28.1,35.291,536006,18:24:07:583
-0.0133,0.0041,0.0792,49.52,5,1015.41,28.1,35.992,537006,18:24:08:583
0.0258,0.0049,-0.0109,49.52,5,1015.39,28.1,33.345,538005,18:24:09:582
-0.0033,0.0093,-0.0097,49.52,5,1015.42,28.1,42.582,539006,18:24:10:583
0.0114,-0.0226,0.0046,49.52,5,1015.59,28.1,44.199,540005,18:24:11:582
0.0321,0.0275,-0.019,49.52,5,1015.53,28.1,41.488,541006,18:24:12:583
0.0688,0.0195,-0.0639,49.52,5,1015.44,28.1,36.776,542006,18:24:13:583
-0.0049,0.0209,-0.036,49.52,5,1015.41,28.1,44.196,543005,18:24:14:582
-0.0255,-0.0259,-0.0887,49.52,5,1015.4,28.1,38.137,544006,18:24:15:583
-0.0247,-0.0281,0.0309,49.52,5,1015.41,28.1,34.756,545005,18:24:16:582
-0.0237,0.0074,-0.0171,49.52,5,1015.43,28.1,35.014,546006,18:24:17:583
0.0017,-0.0473,4.00E-04,49.52,5,1015.4,28.1,35.015,547005,18:24:18:582
-0.0297,-0.0078,-0.0259,49.52,5,1015.37,28.1,34.798,548006,18:24:19:583
0.0335,0.0299,0.0194,49.52,5,1015.36,28.1,35.446,549006,18:24:20:583
-0.0231,-0.0194,0.0017,49.52,5,1015.39,28.1,33.118,550005,18:24:21:582
0.0208,9.00E-04,0.0226,49.52,5,1015.59,28.1,33.11,551005,18:24:22:582
0.0374,0.0195,0.1074,49.52,5,1015.52,28.1,31.929,552006,18:24:23:583
0,0.0405,0.0101,49.52,5,1015.46,28.1,31.226,553006,18:24:24:583
0.0183,-0.0218,-0.079,49.52,5,1015.38,28.1,33.506,554006,18:24:25:583
-0.0314,-0.0147,0.0597,49.52,5,1015.39,28.1,32.629,555005,18:24:26:582
0.0013,0.0059,-0.033,49.52,5,1015.37,28.1,31.628,556006,18:24:27:583
-0.0031,-0.0237,-0.0255,49.52,5,1015.5,28.1,43.055,557006,18:24:28:583
-0.0217,-0.0594,-0.0317,49.52,5,1015.63,28.1,33.056,558005,18:24:29:582
0.0171,0.0231,0.045,49.52,5,1015.55,28.1,34.717,559005,18:24:30:582
0.043,-0.0632,-0.0215,49.52,5,1015.49,28.1,34.652,560006,18:24:31:583
0.0095,-0.0323,-0.0509,49.52,5,1015.43,28.1,34.809,561005,18:24:32:582
-0.0298,0.0108,0.0121,49.52,5,1015.4,28.1,34.293,562006,18:24:33:583
-0.0102,0.0416,0.0103,49.52,5,1015.43,28.1,32.637,563005,18:24:34:582
-0.0438,0.0242,2.00E-04,49.52,5,1015.46,28.1,35.85,564005,18:24:35:582
-0.02,0.008,-0.0018,49.52,5,1015.43,28.1,34.586,565006,18:24:36:583
0.0081,0.0156,0.0362,49.52,5,1015.41,28.1,32.168,566005,18:24:37:582
-0.0117,0.004,-0.0379,49.52,5,1015.38,28.1,35.057,567006,18:24:38:583
0.0081,0.0095,0.009,49.52,5,1015.38,28.1,36.568,568005,18:24:39:582
-0.013,0.0263,0.0497,49.52,5,1015.54,28.1,35.859,569005,18:24:40:582
-0.002,0.0098,-0.0265,49.52,5,1015.68,28.1,33.956,570006,18:24:41:583
0.0586,-0.0158,-0.0452,49.52,5,1015.58,28.1,36.034,571006,18:24:42:583
0.0437,-0.007,-0.0073,49.52,5,1015.49,28.1,34.273,572006,18:24:43:583
-0.0185,0.0289,-0.0228,49.52,5,1015.44,28.1,34.252,573006,18:24:44:583
-0.0021,-0.0179,0.045,49.52,5,1015.41,28.1,34.654,574006,18:24:45:583
0.0224,-0.0333,-0.0327,49.52,5,1015.41,28.1,35.441,575005,18:24:46:582
0.0244,0.0237,0.0225,49.52,5,1015.59,28.1,34.763,576006,18:24:47:583
-0.0018,0.0167,-0.0042,49.52,5,1015.53,28.1,34.23,577005,18:24:48:582
-0.0353,0.0178,-0.0202,49.52,5,1015.49,28.1,35.839,578005,18:24:49:582
-0.0087,0.0375,-0.0175,49.52,5,1015.41,28.1,35.744,579006,18:24:50:583
0.0122,-0.0164,0.0348,49.52,5,1015.39,28.1,34.345,580006,18:24:51:583
0.0198,0.0302,0.0016,49.52,5,1015.36,28.1,45.33,581005,18:24:52:582
0.0476,-0.0082,-0.0374,49.52,5,1015.38,28.1,34.516,582006,18:24:53:583
0.0559,-0.0267,-0.0156,49.52,5,1015.39,28.1,33.495,583005,18:24:54:582
-0.0198,-0.0158,-0.0555,49.52,5,1015.4,28.1,35.235,584006,18:24:55:583
-0.0375,0.0634,-8.00E-04,49.52,5,1015.39,28.1,40.224,585006,18:24:56:583
0.0231,-0.0253,-0.0336,49.52,5,1015.4,28.1,42.761,586005,18:24:57:582
0.0105,-0.0543,-0.0685,49.52,5,1015.46,28,36.025,587006,18:24:58:583
-0.0074,0.0062,0.0128,49.52,5,1015.42,28,33.843,588005,18:24:59:582
-0.0084,0.006,0.0119,49.52,5,1015.39,28,35.727,589006,18:25:00:583
0.0038,0.0094,-0.0481,49.52,5,1015.36,28,33.121,590005,18:25:01:582
0.0227,-0.0587,-0.0096,49.52,5,1015.36,28,36.13,591006,18:25:02:583
0.0106,0.0117,-0.0329,49.52,5,1015.45,28,36.281,592005,18:25:03:582
-0.0074,2.00E-04,0.0019,49.52,5,1015.57,28,32.856,593006,18:25:04:583
-0.0249,-0.0183,0.0271,49.52,5,1015.5,28,33.569,594005,18:25:05:582
-0.0416,0.0134,-0.0368,49.52,5,1015.45,28,35.352,595006,18:25:06:583
-0.0499,0.0362,0.0519,49.52,5,1015.41,28,33.229,596006,18:25:07:583
0.035,0.0018,-0.0754,49.52,5,1015.38,28,35,597006,18:25:08:583
-0.0326,-0.0232,-0.0216,49.52,5,1015.42,28,34.618,598006,18:25:09:583
0.0262,-0.0036,-0.0275,49.52,5,1015.61,28,35.1,599006,18:25:10:583
-0.0455,-0.0304,-0.0519,49.52,5,1015.59,28,35.861,600005,18:25:11:582
0.0244,0.0107,0.027,49.52,5,1015.5,28,33.995,601005,18:25:12:582
6.00E-04,0.0099,-0.025,49.52,5,1015.42,28,38.09,602005,18:25:13:582
-0.0615,0.0213,0.0193,49.52,5,1015.41,28,33.822,603005,18:25:14:582
