LINEAR ACCELERATION X,LINEAR ACCELERATION Y,LINEAR ACCELERATION Z,LIGHT (lux),PROXIMITY (m),ATMOSPHERIC PRESSURE (hPa),TEMPERATURE (C),SOUND LEVEL (dB),Time since start in ms ,YYYY-MO-DD HH-MI-SS_SSS
-0.1277,-0.0265,0.0474,12.45,5,1008.86,28.9,41.161,32,23:08:40:662
-9.00E-04,0.0264,-0.0509,12.45,5,1008.84,29,40.393,1032,23:08:41:662
0.0081,0.0145,0.004,12.45,5,1008.59,29,40.517,2032,23:08:42:662
-0.0087,0.0193,-0.0732,12.45,5,1008.42,29.1,43.481,3032,23:08:43:662
-8.00E-04,0.0289,-0.0399,12.45,5,1008.29,29.1,36.482,4032,23:08:44:662
-0.0277,-0.0064,-0.003,12.45,5,1008.17,29.1,38.46,5032,23:08:45:662
-0.0109,0.0476,-0.0071,12.45,5,1008.05,29.1,40.871,6032,23:08:46:662
0.0184,-0.0087,0.0078,12.45,5,1007.97,29.2,36.342,7032,23:08:47:662
0.004,-0.0271,0.0759,12.45,5,1007.92,29.2,48.296,8032,23:08:48:662
-0.0338,-0.0049,-0.0182,12.45,5,1007.83,29.2,44.911,9032,23:08:49:662
-0.0438,-0.0873,-0.0599,12.45,5,1007.86,29.2,39.688,10032,23:08:50:662
0.0145,0.0104,-0.0291,12.45,5,1007.86,29.2,51.287,11032,23:08:51:662
0.0105,-0.005,0.0424,12.45,5,1007.81,29.2,49.939,12032,23:08:52:662
0.0194,0.0327,-0.0694,12.45,5,1007.74,29.2,40.725,13032,23:08:53:662
0.0378,0.0044,-0.0033,12.45,5,1007.7,29.2,35.863,14032,23:08:54:662
-0.0282,-0.0295,-0.1163,12.45,5,1007.71,29.2,41.962,15032,23:08:55:662
-0.0299,-0.017,-0.0515,12.45,5,1007.68,29.2,42.715,16032,23:08:56:662
0.0278,0.0178,-0.0048,12.45,5,1007.7,29.2,42.569,17033,23:08:57:663
-0.0578,-0.0131,0.0358,12.45,5,1007.72,29.2,46.882,18032,23:08:58:662
0.0182,-0.0042,0.0203,12.45,5,1007.73,29.2,47.137,19032,23:08:59:662
-0.0124,0.066,0.0944,12.45,5,1007.84,29.2,48.488,20032,23:09:00:662
-0.0366,-8.00E-04,-0.013,12.45,5,1007.84,29.2,56.447,21033,23:09:01:663
-0.0083,-0.0015,-0.0143,12.45,5,1008.18,29.2,42.121,22032,23:09:02:662
-0.0114,0.0493,-0.0057,12.45,5,1008.34,29.3,41.259,23032,23:09:03:662
0.2334,0.0156,-0.0985,12.45,5,1008.53,29.3,53.799,24032,23:09:04:662
0.0095,-0.0555,0.0221,12.45,5,1008.49,29.4,41.988,25032,23:09:05:662
0.0298,-0.0315,-0.0442,12.45,5,1008.25,29.4,50.564,26033,23:09:06:663
-0.0195,-0.0283,-0.0096,12.45,5,1007.95,29.5,43.935,27032,23:09:07:662
0.0073,-0.0055,0.0605,12.45,5,1007.79,29.4,51.485,28032,23:09:08:662
-0.0466,0.025,-0.009,12.45,5,1007.68,29.4,52.804,29032,23:09:09:662
-0.0436,0.0015,0.0338,12.45,5,1007.62,29.4,38.397,30032,23:09:10:662
-0.0018,-0.0223,-0.0097,12.45,5,1007.56,29.4,40.975,31032,23:09:11:662
-0.0145,-0.0014,-0.0112,12.45,5,1007.46,29.4,52.322,32033,23:09:12:663
0.031,-0.0482,0.0453,12.45,5,1007.4,29.4,53.208,33032,23:09:13:662
-0.0433,0.0485,-0.0194,12.45,5,1007.41,29.4,41.945,34032,23:09:14:662
0.0351,0.066,-0.0233,12.45,5,1007.41,29.3,57.623,35032,23:09:15:662
-0.002,-0.0166,0.0151,12.45,5,1007.44,29.3,53.814,36032,23:09:16:662
-0.0055,-0.0622,-0.0726,12.45,5,1007.41,29.3,39.215,37032,23:09:17:662
0.0012,-0.0271,0.0357,12.45,5,1007.39,29.3,48.288,38033,23:09:18:663
0.0035,-0.027,-0.0382,12.45,5,1007.46,29.3,50.114,39032,23:09:19:662
0.0138,0.0117,0.0445,12.45,5,1007.55,29.2,50.257,40032,23:09:20:662
0.0255,0.0825,-0.014,12.45,5,1007.6,29.2,39.429,41033,23:09:21:663
-0.0094,0.0228,-0.02,12.45,5,1007.57,29.2,42.091,42032,23:09:22:662
0.0422,-0.0341,-0.0266,12.45,5,1007.55,29.2,47.074,43032,23:09:23:662
-0.0232,0.0023,-0.0465,12.45,5,1007.58,29.2,51.612,44032,23:09:24:662
-0.0272,0.0107,0.0178,12.45,5,1007.61,29.2,53.641,45032,23:09:25:662
0.0054,-0.0125,-2.00E-04,12.45,5,1007.62,29.2,46.286,46032,23:09:26:662
0.0244,-0.0784,-0.0689,12.45,5,1007.56,29.2,52.011,47032,23:09:27:662
-0.0095,0.0648,-0.0285,12.45,5,1007.49,29.2,52.067,48032,23:09:28:662
-0.0477,-0.0201,-0.0248,12.45,5,1007.45,29.2,49.726,49033,23:09:29:663
0.0023,0.0692,-0.0069,12.45,5,1007.46,29.1,58.521,50033,23:09:30:663
-0.0082,-0.0319,-0.0079,12.45,5,1007.46,29.1,52.032,51032,23:09:31:662
-0.1079,0.0559,0.0141,12.45,5,1007.45,29.1,49.833,52032,23:09:32:662
-0.0387,-0.0187,0.01,12.45,5,1007.71,29.1,52.685,53032,23:09:33:662
0.0709,-0.013,-0.0342,12.45,5,1008.05,29.1,50.915,54032,23:09:34:662
-0.0353,-0.0077,0.0327,12.45,5,1008.01,29.2,50.97,55032,23:09:35:662
0.0244,0.0283,-0.0192,12.45,5,1007.91,29.2,48.087,56033,23:09:36:663
-0.0388,0.0232,-0.01,12.45,5,1007.83,29.2,50.719,57032,23:09:37:662
-0.023,0.0325,0.0472,12.45,5,1007.81,29.2,56.302,58032,23:09:38:662
-0.0171,-1.00E-04,0.032,12.45,5,1007.8,29.2,54.36,59033,23:09:39:663
-0.0391,-0.023,-0.007,12.45,5,1007.79,29.2,50.932,60032,23:09:40:662
0.0255,-0.0385,-0.0505,12.45,5,1007.74,29.2,49.057,61032,23:09:41:662
0.0411,0.0395,-0.0138,12.45,5,1007.69,29.2,49.291,62032,23:09:42:662
-0.0274,0.0206,-0.0063,12.45,5,1007.68,29.2,48.362,63033,23:09:43:663
0.0306,-0.0133,-0.0162,36.79,5,1007.62,29.2,53.134,64032,23:09:44:662
-0.0313,-0.0238,0.0575,79.8,5,1007.63,29.2,50.204,65032,23:09:45:662
0.08,0.0058,-0.0965,79.8,5,1007.68,29.2,50.261,66032,23:09:46:662
0.0402,0.0056,-0.0322,79.8,5,1007.82,29.2,46.012,67033,23:09:47:663
0.0285,0.039,0.0203,79.8,5,1008.33,29.2,50.445,68032,23:09:48:662
0.082,-0.0136,0.0051,79.8,5,1008.67,29.3,49.039,69032,23:09:49:662
-0.0148,-0.0065,-0.0138,79.8,5,1008.79,29.4,47.897,70032,23:09:50:662
0.0045,-0.0467,0.0778,79.8,5,1008.5,29.5,46.526,71033,23:09:51:663
-0.0201,-0.0169,0.0109,79.8,5,1008.15,29.5,49.846,72032,23:09:52:662
-0.0173,0.0038,-0.0298,79.8,5,1007.94,29.5,48.777,73032,23:09:53:662
0.0294,-0.0563,0.019,79.8,5,1007.73,29.5,48.782,74032,23:09:54:662
-0.0023,0.0282,0.0469,79.8,5,1007.54,29.5,47.483,75032,23:09:55:662
-0.0113,0.008,0.017,79.8,5,1007.46,29.5,45.861,76032,23:09:56:662
0.0093,-0.0308,-0.075,79.8,5,1007.42,29.5,48.56,77033,23:09:57:663
0.0369,-9.00E-04,-0.0523,79.8,5,1007.42,29.4,50.943,78033,23:09:58:663
0.0028,0.007,0.0737,79.8,5,1007.48,29.4,49.241,79032,23:09:59:662
-0.0182,-0.0073,-0.0034,79.8,5,1007.49,29.4,49.294,80032,23:10:00:662
-0.0122,-0.0394,-0.0075,79.8,5,1007.5,29.4,50.269,81032,23:10:01:662
0.0031,0.0064,-0.0507,79.8,5,1007.48,29.4,49.269,82032,23:10:02:662
-0.0299,-0.0208,0.0549,79.8,5,1007.39,29.4,48.965,83033,23:10:03:663
0.018,0.0013,0.0384,84.61,5,1007.39,29.4,52.119,84032,23:10:04:662
-0.0073,0.0124,0.0018,84.61,5,1007.78,29.3,51.895,85033,23:10:05:663
-0.0115,0.0374,-0.0589,84.61,5,1007.67,29.3,48.348,86032,23:10:06:662
-0.0085,-0.0242,0.0776,84.61,5,1007.51,29.3,49.39,87033,23:10:07:663
-0.0491,8.00E-04,-0.035,84.61,5,1007.35,29.3,48.08,88032,23:10:08:662
-0.0145,0.0194,-0.0767,84.61,5,1007.27,29.3,42.594,89033,23:10:09:663
-0.0346,-0.0411,-0.0095,84.61,5,1007.23,29.2,36.257,90032,23:10:10:662
0.0029,0.0054,0.03,84.61,5,1007.17,29.2,35.113,91033,23:10:11:663
-0.0125,0.0127,-0.0539,84.61,5,1007.16,29.2,39.392,92032,23:10:12:662
0.065,0.0293,0.0469,84.61,5,1007.13,29.1,37.94,93032,23:10:13:662
0.0018,0.0105,0.0524,84.61,5,1007.13,29.1,40.811,94033,23:10:14:663
-0.0392,-0.0091,0.0285,84.61,5,1007.15,29.1,33.902,95032,23:10:15:662
0.0204,0.0532,0.0515,84.61,5,1007.2,29,34.849,96032,23:10:16:662
0.0032,0.0235,0.0405,84.61,5,1007.19,29,43.461,97032,23:10:17:662
-0.0513,0.0013,-0.0115,84.61,5,1007.2,29,33.81,98032,23:10:18:662
-0.033,-0.0083,-0.085,84.61,5,1007.22,28.9,32.771,99032,23:10:19:662
-0.0271,-0.0553,-0.0326,84.61,5,1007.22,28.9,36.854,100033,23:10:20:663
0.0112,-0.0378,0.0023,84.61,5,1007.23,28.9,36.725,101032,23:10:21:662
0.0497,0.0379,0.0355,84.61,5,1007.26,28.9,36.415,102033,23:10:22:663
-0.0033,0.0192,0.0324,84.61,5,1007.3,28.8,36.822,103032,23:10:23:662
0.0306,-0.0227,-0.0057,84.61,5,1007.32,28.8,44.353,104032,23:10:24:662
-0.0184,0.0768,0.0339,84.61,5,1007.35,28.8,40.733,105032,23:10:25:662
0.021,0.0448,0.0945,84.61,5,1007.34,28.7,45.899,106032,23:10:26:662
-0.0223,-0.0475,-0.0217,84.61,5,1007.35,28.7,52.517,107032,23:10:27:662
0.0024,0.0259,0.026,84.61,5,1007.37,28.7,47.61,108032,23:10:28:662
0.0168,0.0338,0.0467,84.61,5,1007.4,28.7,42.692,109033,23:10:29:663
0.0427,-0.0206,-0.104,84.61,5,1007.37,28.7,44.575,110032,23:10:30:662
-0.0187,-0.004,0.0483,84.61,5,1007.43,28.7,47.991,111033,23:10:31:663
0.0029,-0.0841,-0.0276,84.61,5,1007.42,28.6,49.901,112032,23:10:32:662
-0.0065,-0.0432,0.0033,84.61,5,1007.43,28.6,50.865,113032,23:10:33:662
0.0129,-0.0179,-0.0476,84.61,5,1007.43,28.6,52.47,114032,23:10:34:662
-0.0223,0.0065,-0.0737,84.61,5,1007.44,28.6,47.679,115033,23:10:35:663
-0.0105,-0.0177,-0.0292,84.61,5,1007.51,28.6,38.803,116032,23:10:36:662
-9.00E-04,-0.0429,-0.0079,84.61,5,1007.54,28.6,38.497,117033,23:10:37:663
-0.0414,0.0385,5.00E-04,84.61,5,1007.57,28.6,39.542,118033,23:10:38:663
0.0395,0.0079,-0.0013,84.61,5,1007.59,28.5,42.474,119032,23:10:39:662
-1.00E-04,-0.0213,-0.0204,84.61,5,1007.6,28.5,49.264,120032,23:10:40:662
-0.0061,-0.0254,0.1049,84.61,5,1007.66,28.5,50.831,121032,23:10:41:662
-0.0021,-0.0262,-0.0466,84.61,5,1007.64,28.5,50.556,122033,23:10:42:663
-0.0038,0.0118,0.059,84.61,5,1007.62,28.5,51.311,123032,23:10:43:662
-0.0383,0.025,0.0035,84.61,5,1007.61,28.5,51.106,124033,23:10:44:663
-0.0232,-0.0351,-0.0131,84.61,5,1007.58,28.5,49.28,125032,23:10:45:662
0.0348,0.022,0.0111,84.61,5,1007.58,28.5,49.276,126032,23:10:46:662
0.0234,0.037,0.0701,84.61,5,1007.57,28.5,49.938,127032,23:10:47:662
-0.0226,-0.0455,0.0027,84.61,5,1007.52,28.5,50.633,128032,23:10:48:662
0.0061,-0.0222,-0.0043,84.61,5,1007.54,28.5,49.014,129033,23:10:49:663
-6.00E-04,-0.0098,0.045,84.61,5,1007.53,28.4,49.916,130032,23:10:50:662
0.0074,-0.0533,-0.0215,84.61,5,1007.53,28.4,50.829,131032,23:10:51:662
0.0216,3.00E-04,-0.0039,84.61,5,1007.53,28.4,48.528,132032,23:10:52:662
-0.0528,-0.0039,0.0084,84.61,5,1007.53,28.4,53.083,133033,23:10:53:663
-0.0135,-0.001,0.0382,84.61,5,1007.56,28.4,54.198,134032,23:10:54:662
-0.0442,0.0075,0.0811,84.61,5,1007.54,28.4,49.948,135032,23:10:55:662
-0.0688,-0.033,-0.0713,84.61,5,1007.55,28.4,52.73,136032,23:10:56:662
0.0568,-0.0151,0.0425,84.61,5,1007.55,28.4,51.282,137033,23:10:57:663
-0.0506,0.0192,0.0404,84.61,5,1007.55,28.4,51.235,138032,23:10:58:662
-0.0057,-0.0207,0.0031,84.61,5,1007.62,28.3,49.93,139033,23:10:59:663
-0.0695,0.0174,-0.0194,84.61,5,1007.62,28.3,50.974,140032,23:11:00:662
-0.0133,-0.0643,0.0494,84.61,5,1007.6,28.3,51.168,141032,23:11:01:662
-0.013,0.0068,0.0207,84.61,5,1007.56,28.3,52.829,142032,23:11:02:662
0.0389,0.0148,-0.0302,84.61,5,1007.59,28.3,52.259,143032,23:11:03:662
0.0086,0.0195,0.0313,84.61,5,1007.55,28.3,55.893,144032,23:11:04:662
0.0562,-0.0151,-0.0098,84.61,5,1007.54,28.3,51.11,145032,23:11:05:662
0.0014,-0.052,0.0857,84.61,5,1007.53,28.3,51.437,146033,23:11:06:663
0.0087,0.0118,0.0089,84.61,5,1007.53,28.3,50.105,147032,23:11:07:662
0.0313,0.0345,0.0547,84.61,5,1007.54,28.3,36.766,148033,23:11:08:663
-0.0059,-0.0331,-0.0597,84.61,5,1007.52,28.3,37.174,149032,23:11:09:662
0.0365,-6.00E-04,0.0148,84.61,5,1007.54,28.3,39.435,150032,23:11:10:662
-0.0105,0.0138,-0.0375,84.61,5,1007.56,28.3,36.024,151033,23:11:11:663
0.0105,3.00E-04,0.0778,84.61,5,1007.57,28.3,55.618,152032,23:11:12:662
-0.0598,0.0077,-0.0055,84.61,5,1007.57,28.2,54.328,153032,23:11:13:662
-0.0214,-0.0112,0.0174,84.61,5,1007.55,28.2,53.55,154032,23:11:14:662
0.0272,0.0086,-0.0191,84.61,5,1007.57,28.2,51.473,155033,23:11:15:663
-0.0206,-0.0143,-0.0359,84.61,5,1007.57,28.2,51.092,156032,23:11:16:662
0.0126,0.0034,-0.0432,84.61,5,1007.56,28.2,50.819,157032,23:11:17:662
-0.0026,-0.0165,0.0025,84.61,5,1007.58,28.2,49.458,158032,23:11:18:662
0.0155,-0.0321,0.0079,84.61,5,1007.66,28.2,50.455,159033,23:11:19:663
-0.025,-0.0289,0.0315,84.61,5,1007.68,28.2,45.993,160032,23:11:20:662
0.015,-0.0124,0.0258,84.61,5,1007.87,28.2,44.126,161032,23:11:21:662
0.0135,0.0307,0.0721,84.61,5,1007.82,28.2,44.948,162033,23:11:22:663
0.0616,0.0184,0.0158,84.61,5,1007.77,28.3,48.387,163033,23:11:23:663
0.0063,0.011,-0.0301,84.61,5,1007.7,28.2,44.524,164032,23:11:24:662
0.0818,-0.0438,-0.0468,84.61,5,1007.7,28.2,46.713,165032,23:11:25:662
0.0017,0.0539,0.0379,84.61,5,1007.67,28.2,44.677,166033,23:11:26:663
0.0427,-0.0364,-0.0043,84.61,5,1007.64,28.2,44.709,167032,23:11:27:662
-0.0073,-0.0047,0.019,84.61,5,1007.61,28.2,40.759,168033,23:11:28:663
-0.002,-0.0118,0.104,84.61,5,1007.63,28.2,51.61,169032,23:11:29:662
0.0188,-0.0232,-0.0423,84.61,5,1007.6,28.2,47.883,170033,23:11:30:663
0.0212,-0.0116,-0.0449,84.61,5,1007.59,28.2,38.986,171032,23:11:31:662
-0.003,-0.038,0.0282,84.61,5,1007.63,28.2,45.031,172033,23:11:32:663
0.0132,0.0383,0.0203,84.61,5,1007.59,28.2,44.632,173032,23:11:33:662
0.0196,-0.0155,-0.0056,84.61,5,1007.61,28.2,46.9,174033,23:11:34:663
0.0265,-0.03,-0.0059,84.61,5,1007.62,28.2,50.683,175032,23:11:35:662
-0.0068,-0.014,0.0307,84.61,5,1007.61,28.1,49.305,176032,23:11:36:662
-0.0104,0.0267,-0.0186,84.61,5,1007.62,28.1,46.324,177033,23:11:37:663
-0.0548,-0.0101,-0.0393,84.61,5,1007.63,28.1,45.37,178033,23:11:38:663
-0.0309,-0.0506,-0.0528,84.61,5,1007.62,28.1,46.399,179032,23:11:39:662
0.0228,0.0336,-0.0044,84.61,5,1007.63,28.1,33.716,180032,23:11:40:662
0.026,-0.0177,-0.0631,84.61,5,1007.65,28.1,42.687,181032,23:11:41:662
-0.001,-0.025,-0.0143,84.61,5,1007.65,28.1,48.775,182032,23:11:42:662
0.0445,-0.0202,0.0602,84.61,5,1007.67,28.1,50.464,183032,23:11:43:662
0.0277,0.0185,-0.0324,84.61,5,1007.66,28.1,40.16,184032,23:11:44:662
0.0311,-0.0612,-0.0458,84.61,5,1007.69,28.1,45.697,185033,23:11:45:663
9.00E-04,-0.0274,0.0347,84.61,5,1007.65,28.1,46.531,186032,23:11:46:662
0.0574,-0.0109,-0.0567,84.61,5,1007.66,28.1,51.727,187032,23:11:47:662
0.0187,-0.0529,-0.0072,84.61,5,1007.67,28.1,47.987,188032,23:11:48:662
0.0183,-0.0078,-0.0344,84.61,5,1007.68,28.1,41.882,189032,23:11:49:662
0.0335,0.0249,-0.0318,84.61,5,1007.7,28.1,38.744,190032,23:11:50:662
0.0039,-0.0014,0.019,84.61,5,1007.69,28.1,37.56,191033,23:11:51:663
0.0233,0.0169,0.0568,84.61,5,1007.69,28.1,44.606,192032,23:11:52:662
-0.0057,-0.035,0.0365,84.61,5,1007.68,28.1,42.329,193033,23:11:53:663
-0.015,0.0362,0.0224,84.61,5,1007.67,28,42.174,194032,23:11:54:662
-0.0103,-0.0203,-0.002,84.61,5,1007.64,28,43.565,195032,23:11:55:662
-0.08,0.0271,0.0537,84.61,5,1007.66,28,36.269,196033,23:11:56:663
0.0193,0.0191,-0.0379,84.61,5,1007.62,28,33.485,197032,23:11:57:662
0.0218,-0.0298,-0.0203,84.61,5,1007.64,28,46.33,198032,23:11:58:662
0.0856,0.0106,0.0672,84.61,5,1007.65,28,41.323,199032,23:11:59:662
-0.0091,0.0067,-0.048,84.61,5,1007.65,28,36.887,200032,23:12:00:662
0.0152,-0.0078,-0.0606,84.61,5,1007.65,28,34.879,201032,23:12:01:662
-0.0136,-0.007,-0.0421,84.61,5,1007.63,28,47.34,202033,23:12:02:663
0.0114,-0.0324,-0.0267,84.61,5,1007.66,28,39.769,203032,23:12:03:662
0.0364,0.0199,2.00E-04,84.61,5,1007.65,28,43.645,204032,23:12:04:662
0.0113,-0.0079,0.0161,84.61,5,1007.67,28,36.583,205032,23:12:05:662
-0.0124,9.00E-04,0.0734,84.61,5,1007.69,28,47.23,206032,23:12:06:662
0.0342,0.0013,-0.0022,84.61,5,1007.69,28,47.228,207032,23:12:07:662
-0.0066,-0.0189,-0.0269,84.61,5,1007.69,28,44.265,208032,23:12:08:662
0.0057,0.0069,-0.0035,84.61,5,1007.68,28,51.321,209032,23:12:09:662
0.0067,-0.0121,-0.0055,84.61,5,1007.69,28,48.999,210033,23:12:10:663
-0.0563,-0.0095,0.0018,84.61,5,1007.69,28,45.58,211032,23:12:11:662
0.0345,0.0635,-0.0047,84.61,5,1007.72,28,51.038,212032,23:12:12:662
0.0696,-0.0174,0.0684,84.61,5,1007.7,28,46.472,213032,23:12:13:662
-0.0195,0.0542,-0.0201,84.61,5,1007.7,28,48.589,214032,23:12:14:662
0.0141,-0.0607,0.0183,84.61,5,1007.7,28,49.617,215032,23:12:15:662
0.0197,-0.0025,-0.0192,84.61,5,1007.7,28,48.695,216032,23:12:16:662
-0.0602,-0.0109,0.0107,84.61,5,1007.69,28,53.88,217032,23:12:17:662
0.0188,0.0074,0.0483,84.61,5,1007.7,27.9,41.754,218033,23:12:18:663
-0.0314,-0.0022,0.0098,84.61,5,1007.72,27.9,45.818,219032,23:12:19:662
0.0209,-0.0024,0.0485,84.61,5,1007.69,27.9,53.54,220032,23:12:20:662
-0.0409,0.0079,0.0142,84.61,5,1007.71,27.9,40.306,221033,23:12:21:663
-0.0034,0.0342,0.0172,84.61,5,1007.71,27.9,40.046,222032,23:12:22:662
-0.0223,0.0407,0.012,84.61,5,1007.71,27.9,43.115,223033,23:12:23:663
-0.0208,0.0285,-0.0317,84.61,5,1007.71,27.9,38.074,224032,23:12:24:662
0.0335,-0.0437,0.0185,84.61,5,1007.73,27.9,41.102,225032,23:12:25:662
-0.0305,-0.0095,0.09,84.61,5,1007.71,27.9,50.781,226032,23:12:26:662
-0.006,-0.014,-0.035,84.61,5,1007.73,27.9,48.81,227032,23:12:27:662
-0.0079,0.0244,0.0264,84.61,5,1007.72,27.9,51.787,228033,23:12:28:663
-0.0346,0.0279,-0.0425,84.61,5,1007.75,27.9,54.05,229032,23:12:29:662
-0.0073,-0.0508,-0.0302,84.61,5,1008,27.9,50.718,230032,23:12:30:662
0.0246,-0.0038,-0.021,84.61,5,1007.93,28,45.463,231032,23:12:31:662
0.0545,0.0085,-0.0159,84.61,5,1007.85,28,36.329,232032,23:12:32:662
0.0398,0.0059,0.0268,84.61,5,1007.82,28,34.824,233032,23:12:33:662
0.0098,-0.0461,-0.0281,84.61,5,1007.76,28,35.365,234032,23:12:34:662
0.0535,0.002,-0.0254,84.61,5,1007.75,28,35.182,235032,23:12:35:662
-0.0467,-0.02,-0.079,84.61,5,1007.77,28,36.408,236032,23:12:36:662
0.001,-0.0095,0.0929,84.61,5,1007.73,27.9,36.082,237033,23:12:37:663
-0.037,-0.0141,0.0172,84.61,5,1007.75,28,35.319,238033,23:12:38:663
-0.0378,-0.0051,-0.0094,84.61,5,1007.74,27.9,36.026,239032,23:12:39:662
-0.0237,-0.0232,-0.0423,84.61,5,1007.72,27.9,35.5,240033,23:12:40:663
1.00E-04,0.0311,0.0114,84.61,5,1007.71,27.9,36.612,241032,23:12:41:662
0.027,0.041,0.0813,84.61,5,1007.72,27.9,36.168,242032,23:12:42:662
-0.0361,0.0029,0.023,84.61,5,1007.67,27.9,49.997,243033,23:12:43:663
0.0069,0.0025,-0.0806,84.61,5,1007.66,27.9,47.918,244032,23:12:44:662
-0.0101,-0.0418,-0.0386,84.61,5,1007.65,27.9,51.105,245033,23:12:45:663
0.0059,0.0251,0.1277,84.61,5,1007.63,27.9,54.224,246032,23:12:46:662
0.0468,0.0122,0.0378,84.61,5,1007.75,27.9,49.481,247032,23:12:47:662
0.0153,-0.0051,0.0061,84.61,5,1007.7,27.9,50.196,248032,23:12:48:662
0.0035,0.0023,0.0716,84.61,5,1007.66,27.9,50.01,249032,23:12:49:662
0.0399,0.0085,0.0279,84.61,5,1007.64,27.9,47.833,250032,23:12:50:662
0.0041,-0.0291,0.0297,84.61,5,1007.65,27.9,52.937,251033,23:12:51:663
-0.0197,0.0493,0.0298,84.61,5,1007.63,27.9,50.276,252033,23:12:52:663
0.0342,-0.0136,0.0405,84.61,5,1007.62,27.9,51.053,253032,23:12:53:662
-0.0596,0.0029,0.0195,84.61,5,1007.6,27.9,51.253,254032,23:12:54:662
0.001,0.0327,0.0042,84.61,5,1007.63,27.9,51.864,255033,23:12:55:663
-0.0439,-0.0143,-0.0283,84.61,5,1007.62,27.9,50.047,256032,23:12:56:662
-0.0214,0.0401,0.047,84.61,5,1007.65,27.9,51.582,257032,23:12:57:662
-0.0634,-0.0547,0.0424,84.61,5,1007.63,27.9,51.732,258032,23:12:58:662
-0.0414,0.0494,-0.0407,84.61,5,1007.64,27.9,51.525,259032,23:12:59:662
-0.0324,0.0058,0.073,84.61,5,1007.65,27.9,52.09,260033,23:13:00:663
0.021,0.0074,0.0579,84.61,5,1007.66,27.9,51.207,261032,23:13:01:662
0.0395,0.0155,0.0013,84.61,5,1007.66,27.9,51.529,262033,23:13:02:663
-4.00E-04,-0.0163,-0.0358,84.61,5,1007.65,27.9,52.32,263032,23:13:03:662
-0.0375,0.043,0.1099,84.61,5,1007.63,27.9,52.338,264033,23:13:04:663
0.0046,-0.0351,-0.0282,84.61,5,1007.63,27.8,53.372,265032,23:13:05:662
0.0314,0.0081,0.1076,84.61,5,1007.63,27.8,51.856,266032,23:13:06:662
0.0207,0.003,-0.0558,84.61,5,1007.65,27.8,54.101,267032,23:13:07:662
0.0086,0.0344,-0.0216,84.61,5,1007.62,27.8,51.146,268032,23:13:08:662
-0.0508,-0.0243,-0.0517,84.61,5,1007.64,27.8,51.282,269032,23:13:09:662
-0.0046,0.0172,0.0587,84.61,5,1007.63,27.8,45.223,270032,23:13:10:662
0.0363,-0.0129,0.014,84.61,5,1007.64,27.8,39.748,271032,23:13:11:662
0.0181,-0.0089,-0.0013,84.61,5,1007.64,27.8,41.61,272032,23:13:12:662
-0.0188,-0.0075,-0.0507,84.61,5,1007.62,27.8,44.785,273032,23:13:13:662
0.0234,-0.0323,-0.037,84.61,5,1007.64,27.8,36.31,274033,23:13:14:663
0.0048,0.0097,0.0084,84.61,5,1007.75,27.8,34.331,275032,23:13:15:662
0.0352,0.0629,0.0143,84.61,5,1007.79,27.8,33.864,276032,23:13:16:662
0.0067,-0.0094,0.0269,84.61,5,1007.75,27.8,33.382,277032,23:13:17:662
0.0098,-0.0321,-1.00E-04,84.61,5,1007.71,27.9,33.826,278032,23:13:18:662
-0.0135,0.0112,0.0039,84.61,5,1007.68,27.9,35.925,279033,23:13:19:663
-0.0064,-0.0073,0.0399,84.61,5,1007.65,27.8,35.468,280032,23:13:20:662
0.0411,-0.0244,0.0537,84.61,5,1007.65,27.8,44.17,281032,23:13:21:662
0.0171,0.0334,-0.0249,84.61,5,1007.63,27.8,35.145,282032,23:13:22:662
0.0273,-0.0311,-0.0286,84.61,5,1007.62,27.8,43.6,283032,23:13:23:662
-0.0533,-0.0823,-0.0134,84.61,5,1007.62,27.8,44.374,284033,23:13:24:663
0.0453,0.0644,0.0318,84.61,5,1007.79,27.8,45.17,285032,23:13:25:662
-0.0079,-0.0082,0.041,84.61,5,1007.85,27.9,35.315,286032,23:13:26:662
0.0312,0.0012,0.0458,84.61,5,1007.77,27.9,41.581,287032,23:13:27:662
0.0029,0.0214,0.0404,84.61,5,1007.73,27.9,41.393,288033,23:13:28:663
0.0425,0.0045,-0.0383,84.61,5,1007.69,27.9,44.544,289032,23:13:29:662
0.0703,0.0077,0.0137,84.61,5,1007.67,27.9,46.508,290032,23:13:30:662
-2.00E-04,-0.0191,0.0211,84.61,5,1007.62,27.9,48.007,291032,23:13:31:662
0.0077,0.0356,-0.0364,84.61,5,1007.62,27.8,43.512,292033,23:13:32:663
-0.0107,0.0175,0.0207,84.61,5,1007.6,27.8,42.446,293032,23:13:33:662
-0.0334,0.0132,-0.0082,84.61,5,1007.59,27.8,45.064,294032,23:13:34:662
0.0042,-0.0185,0.0304,84.61,5,1007.62,27.8,48.609,295032,23:13:35:662
0.0381,-0.0151,0.0791,84.61,5,1007.63,27.8,51.26,296032,23:13:36:662
-0.0406,0.0402,0.0207,84.61,5,1007.62,27.8,58.593,297032,23:13:37:662
-0.0154,0.0644,0.0619,84.61,5,1007.63,27.8,58.416,298033,23:13:38:663
0.0348,0.0287,0.0206,84.61,5,1007.61,27.8,58.459,299032,23:13:39:662
-0.0174,0.013,0.0296,84.61,5,1007.61,27.8,59.249,300033,23:13:40:663
-0.0996,0.0386,0.0172,84.61,5,1007.77,27.8,54.401,301032,23:13:41:662
-0.0083,-0.0232,-0.025,84.61,5,1007.79,27.8,52.433,302032,23:13:42:662
0.0064,9.00E-04,0.0453,84.61,5,1007.76,27.9,54.638,303032,23:13:43:662
0.012,0.0135,0.0336,84.61,5,1007.68,27.9,54.702,304033,23:13:44:663
0.0133,0.0592,-0.0401,84.61,5,1007.67,27.8,54.866,305032,23:13:45:662
0.0058,-1.00E-04,0.0033,84.61,5,1007.64,27.8,61.096,306032,23:13:46:662
-0.033,0.0066,0.0661,84.61,5,1007.62,27.8,59.772,307032,23:13:47:662
-0.0436,-0.0089,-0.0183,84.61,5,1007.62,27.8,58.898,308032,23:13:48:662
0.0579,0.004,-0.0835,84.61,5,1007.6,27.8,54.514,309032,23:13:49:662
0.0083,0.0092,-0.0251,84.61,5,1007.6,27.8,56.568,310032,23:13:50:662
-0.0408,0.0208,0.0325,84.61,5,1007.59,27.8,57.57,311032,23:13:51:662
0.0016,-0.0011,-0.014,84.61,5,1007.56,27.8,57.64,312032,23:13:52:662
0.0093,0.0547,-0.0025,84.61,5,1007.57,27.8,55.607,313033,23:13:53:663
0.0895,0.0486,0.0015,84.61,5,1007.59,27.8,58.77,314032,23:13:54:662
-0.0238,0.0165,-0.054,84.61,5,1007.58,27.8,56.097,315033,23:13:55:663
-0.0226,-2.00E-04,-0.0872,84.61,5,1007.6,27.8,58.25,316032,23:13:56:662
-0.0112,0.0033,-0.0373,84.61,5,1007.6,27.8,57.955,317032,23:13:57:662
0.0308,-0.0292,-0.0635,84.61,5,1007.58,27.8,58.686,318032,23:13:58:662
0.0092,-0.0544,-0.0982,84.61,5,1007.61,27.8,57.415,319033,23:13:59:663
-0.0438,-0.0152,0.0888,84.61,5,1007.61,27.8,61.315,320032,23:14:00:662
-0.0018,0.059,-0.0606,84.61,5,1007.59,27.8,61.676,321032,23:14:01:662
0.0083,0.017,0.032,84.61,5,1007.58,27.8,64.865,322033,23:14:02:663
-0.0179,-0.0159,0.0422,84.61,5,1007.6,27.8,61.826,323032,23:14:03:662
-0.0298,0.002,0.0415,84.61,5,1007.59,27.8,61.678,324033,23:14:04:663
-0.0165,-0.0044,0.0346,84.61,5,1007.62,27.8,65.851,325032,23:14:05:662
-7.00E-04,0.0281,-0.1088,84.61,5,1007.6,27.7,66.371,326033,23:14:06:663
0.0158,0.0083,-0.0761,84.61,5,1007.6,27.7,67.166,327032,23:14:07:662
0.0519,0.0028,0.0164,84.61,5,1007.63,27.7,57.173,328033,23:14:08:663
0.0247,0.0095,-0.0369,84.61,5,1007.6,27.7,62.264,329032,23:14:09:662
0.0014,-0.077,-0.0995,84.61,5,1007.6,27.7,62.615,330033,23:14:10:663
-0.0148,-0.0391,0.0256,84.61,5,1007.61,27.7,63.345,331032,23:14:11:662
-0.0585,-0.0082,-0.0178,84.61,5,1007.62,27.7,58.575,332032,23:14:12:662
0.0021,0.0205,0.0073,84.61,5,1007.62,27.7,61.539,333033,23:14:13:663
0.0255,0.0467,0.0297,84.61,5,1007.61,27.7,60.253,334032,23:14:14:662
-0.0658,0.0019,-0.0905,84.61,5,1007.62,27.7,62.526,335032,23:14:15:662
0.0234,-0.0527,0.028,84.61,5,1007.68,27.7,65.404,336032,23:14:16:662
0.0515,-0.085,-0.0336,84.61,5,1007.71,27.7,61.682,337032,23:14:17:662
-0.0569,-0.0068,-0.0091,84.61,5,1007.71,27.7,64.392,338032,23:14:18:662
-0.0578,-0.0099,-0.0222,84.61,5,1007.69,27.7,61.132,339033,23:14:19:663
0.0872,0.0136,0.0268,84.61,5,1007.66,27.7,60.898,340032,23:14:20:662
0.0057,-0.0149,-0.1196,84.61,5,1007.63,27.7,61.461,341033,23:14:21:663
0.0145,0.0059,-0.0036,84.61,5,1007.63,27.7,63.922,342032,23:14:22:662
0.0149,-0.0291,0.0912,84.61,5,1007.64,27.7,61.783,343033,23:14:23:663
-0.0484,0.0799,0.0247,84.61,5,1007.63,27.7,62.742,344032,23:14:24:662
0.0192,-0.0573,-0.0406,84.61,5,1007.62,27.7,63.221,345032,23:14:25:662
-0.0199,0.0332,0.0331,84.61,5,1007.62,27.7,60.721,346033,23:14:26:663
0.02,0.0384,-0.0954,84.61,5,1007.65,27.7,64.746,347032,23:14:27:662
-0.0554,0.0606,0.0062,84.61,5,1007.66,27.7,61.55,348033,23:14:28:663
0.0577,0.0068,-0.0135,84.61,5,1007.65,27.7,62.551,349032,23:14:29:662
-0.0793,0.0512,0.1167,84.61,5,1007.66,27.7,63.708,350032,23:14:30:662
-0.0389,-0.0485,-0.0553,84.61,5,1007.63,27.7,61.801,351032,23:14:31:662
-0.0216,0.0027,-0.0307,84.61,5,1007.64,27.7,65.246,352033,23:14:32:663
-0.0528,-0.019,0.0291,84.61,5,1007.63,27.7,58.503,353033,23:14:33:663
0.0066,-0.0041,0.0214,84.61,5,1007.61,27.7,64.069,354032,23:14:34:662
-0.0243,-0.0269,-0.0521,84.61,5,1007.62,27.7,63.117,355032,23:14:35:662
0.0129,0.003,3.00E-04,84.61,5,1007.59,27.7,63.898,356032,23:14:36:662
0.0095,-0.0312,0.0129,84.61,5,1007.62,27.7,60.739,357032,23:14:37:662
0.0194,0.0257,-0.0762,84.61,5,1007.6,27.7,59.745,358032,23:14:38:662
-0.0512,-0.0197,0.0079,84.61,5,1007.6,27.7,61.312,359033,23:14:39:663
0.0307,-0.0441,0.0116,84.61,5,1007.65,27.7,63.618,360032,23:14:40:662
-0.0271,0.0103,0.0203,84.61,5,1007.62,27.7,63.591,361033,23:14:41:663
-0.0282,0.0389,0.0353,84.61,5,1007.61,27.7,62.213,362032,23:14:42:662
0.0864,-0.0197,0.0085,84.61,5,1007.6,27.7,62.756,363033,23:14:43:663
0.0082,-0.0395,0.0493,84.61,5,1007.6,27.7,64.038,364033,23:14:44:663
-0.0325,-0.0725,0.176,84.61,5,1007.6,27.7,61.942,365032,23:14:45:662
0.0573,0.0367,-0.0738,84.61,5,1007.6,27.7,65.573,366032,23:14:46:662
-0.0322,0.0225,0.0844,84.61,5,1007.62,27.7,65.138,367032,23:14:47:662
-0.016,0.0196,-0.0694,84.61,5,1007.62,27.7,64.833,368032,23:14:48:662
0.0575,-0.0428,-0.061,84.61,5,1007.64,27.7,67.659,369033,23:14:49:663
0.0079,0.0407,0.078,84.61,5,1007.62,27.7,67.751,370033,23:14:50:663
0.0546,0.0081,-0.0684,84.61,5,1007.6,27.7,66.682,371032,23:14:51:662
0.0169,-0.0183,-0.0478,84.61,5,1007.62,27.7,64.745,372032,23:14:52:662
0.0302,-0.0083,0.0125,84.61,5,1007.62,27.7,59.171,373033,23:14:53:663
-0.0349,0.0241,0.0732,84.61,5,1007.63,27.7,64.641,374032,23:14:54:662
4.00E-04,0.0267,-0.0079,84.61,5,1007.61,27.7,61.529,375032,23:14:55:662
0.0022,0.0043,-0.0621,84.61,5,1007.63,27.7,62.508,376032,23:14:56:662
-0.0011,0.0939,0.0751,84.61,5,1007.62,27.7,58.122,377032,23:14:57:662
0.0225,-0.0601,-0.0801,84.61,5,1007.63,27.7,61.055,378032,23:14:58:662
0.0521,-0.0121,0.0394,84.61,5,1007.64,27.7,56.994,379032,23:14:59:662
-0.0457,-0.0105,-0.0308,84.61,5,1007.64,27.7,58.17,380032,23:15:00:662
-0.0267,-0.0248,0.0504,84.61,5,1007.76,27.7,62.951,381032,23:15:01:662
-0.0487,0.0867,0.0181,84.61,5,1007.7,27.7,51.187,382033,23:15:02:663
-0.0195,-9.00E-04,-0.0077,84.61,5,1007.68,27.7,48.707,383032,23:15:03:662
0.0264,0.0029,0.0175,84.61,5,1007.67,27.7,58.621,384032,23:15:04:662
0.0161,0.0077,0.073,84.61,5,1007.64,27.7,61.678,385033,23:15:05:663
-0.0251,0.0201,0.0389,84.61,5,1007.65,27.7,62.854,386032,23:15:06:662
-8.00E-04,0.024,-0.0307,84.61,5,1007.67,27.7,54.339,387033,23:15:07:663
-0.0017,-0.0567,-0.0424,84.61,5,1007.64,27.7,63.18,388032,23:15:08:662
0.0136,-0.002,0.0014,84.61,5,1007.62,27.7,60.862,389032,23:15:09:662
-0.0137,0.0063,-0.0265,84.61,5,1007.64,27.7,60.334,390032,23:15:10:662
-0.0172,-0.0234,0.0124,84.61,5,1007.63,27.7,62.57,391032,23:15:11:662
0.0287,-0.028,0.0302,84.61,5,1007.63,27.7,63.619,392032,23:15:12:662
-0.0495,-0.0105,0.0141,84.61,5,1007.65,27.7,64.341,393032,23:15:13:662
0.0408,0.014,-0.0214,84.61,5,1007.66,27.7,62.852,394032,23:15:14:662
0.0301,-0.0115,0.0019,84.61,5,1007.64,27.6,60.251,395032,23:15:15:662
-0.0011,-0.0477,-0.0373,84.61,5,1007.63,27.6,63.476,396033,23:15:16:663
-0.0103,-0.0501,-0.0414,84.61,5,1007.67,27.6,63.778,397032,23:15:17:662
-0.0048,0.0421,0.0948,84.61,5,1007.65,27.6,63.335,398032,23:15:18:662
0.0262,0.0144,-0.0143,84.61,5,1007.65,27.6,61.482,399032,23:15:19:662
0.0514,-0.0245,-0.0209,84.61,5,1007.65,27.6,64.626,400032,23:15:20:662
0.0285,0.0352,0.0797,84.61,5,1007.67,27.6,65.265,401032,23:15:21:662
0.0133,0.0627,0.0916,84.61,5,1007.66,27.6,66.489,402032,23:15:22:662
-0.0147,0.0047,0.0267,84.61,5,1007.68,27.6,56.171,403033,23:15:23:663
-0.0416,0.0415,-0.015,84.61,5,1007.67,27.6,62.034,404032,23:15:24:662
0.0431,0.0021,-0.0177,84.61,5,1007.67,27.6,61.612,405032,23:15:25:662
-0.0186,-0.1196,-0.0946,84.61,5,1007.65,27.6,59.956,406032,23:15:26:662
-0.0048,1.00E-04,-0.0012,84.61,5,1007.62,27.6,63.426,407033,23:15:27:663
-0.0045,0.0272,0.0726,84.61,5,1007.63,27.6,61.884,408033,23:15:28:663
0.0252,0.0138,0.0668,84.61,5,1007.63,27.6,60.6,409032,23:15:29:662
0.0139,0.0083,-0.0412,84.61,5,1007.63,27.6,63.066,410033,23:15:30:663
-0.0171,-0.0063,0.0366,84.61,5,1007.63,27.6,65.135,411032,23:15:31:662
0.0057,-0.0169,0.0142,84.61,5,1007.63,27.6,62.732,412032,23:15:32:662
0.006,0.081,0.0233,84.61,5,1007.63,27.6,65.23,413032,23:15:33:662
-0.0288,-0.0503,-0.0893,84.61,5,1007.6,27.6,62.114,414032,23:15:34:662
-0.0031,-0.0202,0.0579,84.61,5,1007.61,27.6,60.946,415032,23:15:35:662
-0.0457,-0.0199,-0.0512,84.61,5,1007.62,27.6,62.247,416032,23:15:36:662
-0.0394,0.0038,-0.098,84.61,5,1007.58,27.6,63.864,417032,23:15:37:662
-0.0019,-0.0082,-0.0943,84.61,5,1007.57,27.6,62.54,418032,23:15:38:662
0.0738,0.0087,-0.0188,84.61,5,1007.58,27.6,65.891,419032,23:15:39:662
0.0297,0.0257,0.0043,84.61,5,1007.6,27.6,63.729,420033,23:15:40:663
0.0456,-0.0373,-0.0153,84.61,5,1007.6,27.6,63.208,421032,23:15:41:662
0.0378,-0.0487,0.1278,69.05,5,1007.6,27.6,68.304,422033,23:15:42:663
0.0108,0.0151,-0.0237,82.35,5,1007.62,27.6,43.365,423032,23:15:43:662
-0.0362,-2.00E-04,0.0016,82.35,5,1007.6,27.6,35.592,424032,23:15:44:662
-0.0313,-0.0192,0.0262,82.35,5,1007.62,27.6,34.781,425033,23:15:45:663
0.0426,-0.0135,-0.0552,82.35,5,1007.63,27.6,36.848,426033,23:15:46:663
0.0461,0.0214,-0.0055,82.35,5,1007.63,27.6,36.039,427032,23:15:47:662
0.0066,-0.0208,-0.0386,82.35,5,1007.64,27.6,34.584,428033,23:15:48:663
0.0309,0.0068,-0.054,82.35,5,1007.62,27.6,33.791,429032,23:15:49:662
-0.0499,0.0208,-0.0201,82.35,5,1007.63,27.6,34.311,430032,23:15:50:662
-0.0055,-0.0338,-0.0385,82.35,5,1007.63,27.6,34.467,431032,23:15:51:662
-0.0017,0.0227,0.004,82.35,5,1007.65,27.6,32.597,432033,23:15:52:663
0.0268,0.012,0.0446,82.35,5,1007.65,27.6,41.266,433033,23:15:53:663
0.0134,-0.0155,0.0081,82.35,5,1007.65,27.6,38.663,434032,23:15:54:662
0.0117,0.0313,-0.0434,82.35,5,1007.67,27.6,42.184,435032,23:15:55:662
0.0455,-0.0124,0.1057,82.35,5,1007.68,27.6,41.387,436033,23:15:56:663
0.0096,-0.0155,-0.0112,82.35,5,1007.64,27.6,44.736,437032,23:15:57:662
-0.0301,-0.0131,0.0067,82.35,5,1007.66,27.6,56.307,438032,23:15:58:662
-0.0328,-0.0321,0.0077,82.35,5,1007.7,27.6,56.286,439032,23:15:59:662
0.0052,0.0221,-0.0056,82.35,5,1007.67,27.6,56.281,440032,23:16:00:662
-0.0692,-0.0238,-0.0783,82.35,5,1007.68,27.6,51.12,441033,23:16:01:663
-0.0267,-0.0102,-6.00E-04,82.35,5,1007.68,27.6,51.841,442033,23:16:02:663
-0.0099,0.0207,0.0068,82.35,5,1007.69,27.6,34.793,443032,23:16:03:662
0.0517,0.0168,-0.0464,82.35,5,1007.68,27.6,34.12,444033,23:16:04:663
-0.0098,0.0538,0.0089,82.35,5,1007.67,27.6,34.106,445032,23:16:05:662
-0.062,-0.0058,-0.0688,82.35,5,1007.67,27.6,34.768,446032,23:16:06:662
-0.0366,0.0191,0.0969,82.35,5,1007.68,27.6,34.34,447032,23:16:07:662
-0.0447,0.0072,-0.0022,82.35,5,1007.66,27.6,36.184,448032,23:16:08:662
-0.0078,0.0256,-0.0761,82.35,5,1007.67,27.6,35.453,449032,23:16:09:662
-0.0126,-0.0291,0.0035,82.35,5,1007.63,27.6,36.894,450032,23:16:10:662
-0.054,-0.0539,0.0617,82.35,5,1007.64,27.6,62.939,451032,23:16:11:662
0.0124,0.0552,-2.00E-04,82.35,5,1007.66,27.6,60.108,452032,23:16:12:662
-0.0531,0.068,0.0079,82.35,5,1007.62,27.6,62.575,453032,23:16:13:662
0.0549,-0.0499,-0.0223,82.35,5,1007.67,27.6,58.815,454033,23:16:14:663
-0.006,0.0209,0.0536,82.35,5,1007.66,27.6,61.968,455032,23:16:15:662
0.0108,-0.0618,-0.0527,82.35,5,1007.65,27.6,62.861,456032,23:16:16:662
-0.0054,0.0981,0.1024,82.35,5,1007.62,27.6,63.11,457032,23:16:17:662
-0.0602,0.01,-0.0643,82.35,5,1007.64,27.6,62.82,458032,23:16:18:662
0.0618,-0.0015,0.01,82.35,5,1007.67,27.6,61.368,459032,23:16:19:662
-0.115,0.0738,0.0478,82.35,5,1007.67,27.6,64.061,460032,23:16:20:662
-0.0907,0.0601,-0.0602,82.35,5,1007.65,27.6,65.176,461032,23:16:21:662
0.0208,-0.044,0.0349,82.35,5,1007.62,27.6,63.551,462033,23:16:22:663
-0.0039,0.029,0.0612,82.35,5,1007.62,27.6,65.415,463032,23:16:23:662
0.0319,-0.0037,0.0754,82.35,5,1007.62,27.6,62.006,464032,23:16:24:662
0.0349,0.0173,-0.0187,82.35,5,1007.6,27.6,65.702,465032,23:16:25:662
0.0328,0.0234,-0.0919,82.35,5,1007.62,27.6,66.497,466032,23:16:26:662
-0.0075,-0.0392,0.0537,82.35,5,1007.63,27.6,60.297,467032,23:16:27:662
-0.0226,0.0071,0.0039,82.35,5,1007.62,27.6,64.759,468032,23:16:28:662
0.0441,0.0196,-0.0549,82.35,5,1007.6,27.6,63.819,469033,23:16:29:663
-0.0471,0.0452,0.0978,82.35,5,1007.62,27.6,64.2,470032,23:16:30:662
-0.0309,-0.0144,0.0024,82.35,5,1007.6,27.6,65.002,471032,23:16:31:662
0.0239,-0.0058,0.0074,82.35,5,1007.62,27.6,63.896,472032,23:16:32:662
-0.0022,0.0417,-0.0062,82.35,5,1007.6,27.6,63.537,473032,23:16:33:662
0.0746,-0.0665,0.0047,82.35,5,1007.67,27.6,66.823,474032,23:16:34:662
-0.0236,-0.0065,-0.0237,82.35,5,1007.65,27.6,66.331,475033,23:16:35:663
0.0477,0.0266,0.0274,82.35,5,1007.63,27.6,53.902,476032,23:16:36:662
-0.0055,-0.0019,-0.0449,82.35,5,1007.59,27.6,52.498,477032,23:16:37:662
0.0062,-0.0158,0.006,82.35,5,1007.55,27.6,56.805,478032,23:16:38:662
-0.0247,3.00E-04,0.0042,82.35,5,1007.57,27.6,56.734,479032,23:16:39:662
0.0071,0.0093,-0.0257,82.35,5,1007.85,27.6,56.044,480033,23:16:40:663
0.0365,0.0117,-0.0191,82.35,5,1007.77,27.6,51.823,481032,23:16:41:662
0.0012,-0.0022,0.0436,82.35,5,1007.69,27.6,55.884,482032,23:16:42:662
0.0055,0.0026,5.00E-04,82.35,5,1007.63,27.6,51.046,483032,23:16:43:662
-0.0644,-0.0331,0.0411,82.35,5,1007.58,27.6,55.359,484032,23:16:44:662
0.0338,-0.0165,0.0064,82.35,5,1007.55,27.6,52.19,485033,23:16:45:663
-0.0094,-0.0297,-0.069,82.35,5,1007.52,27.6,56.635,486032,23:16:46:662
0.0078,0.0191,-0.0072,82.35,5,1007.49,27.6,54.367,487032,23:16:47:662
-0.0203,-0.0405,-0.0428,82.35,5,1007.51,27.6,56.456,488032,23:16:48:662
-0.0277,-0.0513,-0.001,82.35,5,1007.5,27.6,60.431,489032,23:16:49:662
0.0077,0.0483,-0.0439,82.35,5,1007.5,27.6,52.236,490033,23:16:50:663
-0.0119,0.0442,0.0207,82.35,5,1007.48,27.6,46.023,491033,23:16:51:663
0.0255,0.0592,-0.0269,82.35,5,1007.5,27.6,59.035,492032,23:16:52:662
0.0114,-0.004,0.0655,82.35,5,1007.48,27.6,55.775,493032,23:16:53:662
-0.0623,0.0205,-0.019,82.35,5,1007.47,27.6,58.164,494033,23:16:54:663
0.0207,0.0392,-0.001,82.35,5,1007.5,27.6,50.189,495032,23:16:55:662
-0.0051,0.0231,0.038,82.35,5,1007.5,27.6,54.906,496033,23:16:56:663
-0.0112,-0.0065,0.0379,82.35,5,1007.5,27.6,55.534,497032,23:16:57:662
0.0132,0.0108,0.0094,82.35,5,1007.48,27.6,56.215,498033,23:16:58:663
0.006,-0.003,-0.0771,82.35,5,1007.49,27.6,53.861,499032,23:16:59:662
-0.0063,0.0474,-0.0497,82.35,5,1007.52,27.6,53.708,500032,23:17:00:662
0.0593,-0.0624,0.0663,82.35,5,1007.49,27.6,58.79,501033,23:17:01:663
-0.0181,0.0524,0.0163,82.35,5,1007.49,27.6,37.455,502033,23:17:02:663
0.0127,-0.0108,0.0272,82.35,5,1007.48,27.6,44.658,503032,23:17:03:662
0.0338,0.0467,-0.0034,82.35,5,1007.49,27.6,50.806,504032,23:17:04:662
0.0221,0.0139,0.0311,82.35,5,1007.5,27.6,43.681,505033,23:17:05:663
-0.0207,-0.0488,-0.0647,82.35,5,1007.51,27.6,50.939,506032,23:17:06:662
0.0052,-0.0589,0.0481,82.35,5,1007.51,27.6,56.043,507033,23:17:07:663
0.0265,0.0056,0.0674,82.35,5,1007.52,27.6,48.388,508033,23:17:08:663
-0.0222,-0.0021,0.0367,82.35,5,1007.52,27.6,38.281,509032,23:17:09:662
-0.0256,-0.0603,-0.0476,82.35,5,1007.52,27.6,47.271,510032,23:17:10:662
0.0181,-0.0167,-0.0115,82.35,5,1007.51,27.6,45.893,511033,23:17:11:663
0.0279,-0.0168,-0.0119,82.35,5,1007.53,27.6,53.861,512032,23:17:12:662
-0.025,0.0237,0.0576,82.35,5,1007.55,27.6,58.551,513032,23:17:13:662
0.0124,0.0108,-0.0115,82.35,5,1007.52,27.6,54.795,514032,23:17:14:662
-0.0039,-0.0148,-0.0332,82.35,5,1007.52,27.6,54.238,515033,23:17:15:663
0.0158,0.0018,-0.0409,82.35,5,1007.52,27.6,57.103,516032,23:17:16:662
0.0162,-0.0728,-0.0342,82.35,5,1007.5,27.6,50.701,517032,23:17:17:662
-0.0537,-0.0229,0.0357,82.35,5,1007.5,27.6,48.785,518032,23:17:18:662
-0.0268,0.0416,-0.0301,82.35,5,1007.54,27.5,47.013,519032,23:17:19:662
0.0128,0.0085,0.0617,82.35,5,1007.56,27.5,50.341,520032,23:17:20:662
0.0375,-0.0125,-0.0239,82.35,5,1007.54,27.6,54.354,521034,23:17:21:664
0.0575,0.0253,-0.027,82.35,5,1007.55,27.5,55.527,522032,23:17:22:662
0.032,-0.0286,0.0015,82.35,5,1007.55,27.5,49.979,523033,23:17:23:663
-0.0166,-0.0332,0.0719,82.35,5,1007.55,27.5,52.311,524032,23:17:24:662
-0.0412,-0.0028,-0.0524,82.35,5,1007.55,27.5,50.372,525032,23:17:25:662
-0.0392,-0.0312,0.0265,82.35,5,1007.54,27.5,53.489,526032,23:17:26:662
-0.0523,-0.0149,-0.0248,82.35,5,1007.51,27.5,57.96,527032,23:17:27:662
-0.0205,0.0061,0.0414,82.35,5,1007.53,27.5,60.049,528032,23:17:28:662
-0.0216,-0.0111,-0.0222,82.35,5,1007.53,27.5,50.892,529032,23:17:29:662
-0.0281,0.0301,0.0026,82.35,5,1007.53,27.5,55.856,530033,23:17:30:663
0.0182,-0.0035,-0.0634,82.35,5,1007.55,27.5,54.795,531032,23:17:31:662
0.0076,0.0129,0.0262,82.35,5,1007.54,27.5,53.903,532032,23:17:32:662
0.0173,0.0406,-0.0463,82.35,5,1007.51,27.5,54.691,533033,23:17:33:663
-9.00E-04,-0.034,-0.0162,82.35,5,1007.53,27.5,55.878,534032,23:17:34:662
-0.0281,-0.0215,0.0722,82.35,5,1007.5,27.5,49.918,535032,23:17:35:662
-0.003,0.0052,0.0195,82.35,5,1007.51,27.5,53.884,536032,23:17:36:662
0.0069,-0.0208,-0.0875,82.35,5,1007.5,27.5,54.697,537032,23:17:37:662
-0.0502,0.0019,0.1329,82.35,5,1007.5,27.5,58.092,538032,23:17:38:662
-0.0015,0.0019,0.0866,82.35,5,1007.5,27.5,58.181,539032,23:17:39:662
-6.00E-04,0.0175,0.0386,82.35,5,1007.5,27.5,57.765,540032,23:17:40:662
0.0134,-5.00E-04,-0.0152,82.35,5,1007.49,27.5,55.028,541032,23:17:41:662
-0.0743,0.0265,-0.0356,82.35,5,1007.49,27.5,56.617,542033,23:17:42:663
-0.0117,0.0016,0.0403,82.35,5,1007.52,27.5,52.511,543032,23:17:43:662
-0.0094,0.042,-0.0014,82.35,5,1007.53,27.5,52.439,544032,23:17:44:662
-0.0612,0.0114,-0.0279,82.35,5,1007.53,27.5,55.286,545032,23:17:45:662
-0.0411,-0.065,0.0491,82.35,5,1007.51,27.5,55.056,546032,23:17:46:662
0.0038,-0.0063,0.1267,82.35,5,1007.51,27.5,50.132,547032,23:17:47:662
0.0401,0.0038,-0.0014,82.35,5,1007.53,27.5,55.277,548033,23:17:48:663
0.0132,-0.0283,0.0035,82.35,5,1007.51,27.5,56.96,549032,23:17:49:662
-0.01,0.0377,0.0322,82.35,5,1007.51,27.5,54.12,550033,23:17:50:663
-0.0276,0.0369,0.0277,82.35,5,1007.52,27.5,55.844,551032,23:17:51:662
0.0083,-0.0425,0.0311,82.35,5,1007.54,27.5,55.525,552033,23:17:52:663
0.0364,-0.0173,-0.0941,82.35,5,1007.53,27.5,56.109,553032,23:17:53:662
-0.0212,0.0044,-0.0097,82.35,5,1007.56,27.5,52.076,554032,23:17:54:662
0.0289,0.0141,0.0431,82.35,5,1007.55,27.5,52.713,555032,23:17:55:662
0.0076,0.0436,-0.037,82.35,5,1007.56,27.5,55.987,556032,23:17:56:662
0.0457,0.0135,0.0098,82.35,5,1007.55,27.5,56.451,557032,23:17:57:662
-0.013,-0.036,0.0321,82.35,5,1007.57,27.5,58.299,558032,23:17:58:662
0.0134,0.0074,0.0104,82.35,5,1007.58,27.5,58.106,559032,23:17:59:662
0.0364,0.0337,9.00E-04,82.35,5,1007.57,27.5,54.573,560032,23:18:00:662
-0.0455,0.0028,-0.0363,82.35,5,1007.55,27.5,55.645,561032,23:18:01:662
-0.0316,-0.025,-0.0968,82.35,5,1007.57,27.5,54.501,562032,23:18:02:662
0.0472,-0.0638,-0.0094,82.35,5,1007.57,27.5,59.008,563033,23:18:03:663
-0.0316,0.0179,0.0318,82.35,5,1007.65,27.5,56.537,564032,23:18:04:662
-0.0226,0.0446,0.014,82.35,5,1007.61,27.5,59.374,565032,23:18:05:662
-0.016,0.0096,-0.0661,82.35,5,1007.59,27.5,54.986,566032,23:18:06:662
-7.00E-04,0.0179,0.0332,82.35,5,1007.58,27.5,58.513,567032,23:18:07:662
0.0072,0.0276,0.1069,82.35,5,1007.6,27.5,53.492,568033,23:18:08:663
-0.0039,-0.0218,0.0404,82.35,5,1007.61,27.5,58.629,569032,23:18:09:662
-0.0566,-0.0144,-0.0188,82.35,5,1007.6,27.5,54.849,570032,23:18:10:662
0.0543,-0.0235,0.0136,82.35,5,1007.6,27.5,54.982,571033,23:18:11:663
0.0456,0.0503,0.0083,82.35,5,1007.57,27.5,53.706,572033,23:18:12:663
0.0306,0.0223,0.001,82.35,5,1007.56,27.5,56.602,573032,23:18:13:662
0.0048,-0.0166,-0.0674,82.35,5,1007.58,27.5,53.552,574032,23:18:14:662
0.004,-0.0423,-0.0524,82.35,5,1007.57,27.5,56.95,575033,23:18:15:663
-0.0079,-0.0338,0.0024,82.35,5,1007.74,27.5,57.523,576032,23:18:16:662
-0.0481,-0.0323,-0.0409,82.35,5,1007.71,27.6,53.649,577033,23:18:17:663
-0.0148,-0.0154,0.0202,82.35,5,1007.66,27.6,52.541,578032,23:18:18:662
0.0153,-0.0285,-0.0459,82.35,5,1007.62,27.6,53.343,579032,23:18:19:662
0.0111,0.0055,0.0267,82.35,5,1007.6,27.6,56.867,580032,23:18:20:662
-0.0615,0.0158,0.0355,82.35,5,1007.55,27.6,56.813,581032,23:18:21:662
-0.0102,0.0317,0.0509,82.35,5,1007.53,27.6,57.55,582032,23:18:22:662
0.0241,0.0199,0.0112,82.35,5,1007.51,27.6,53.807,583032,23:18:23:662
-0.0216,-0.0178,-0.0053,82.35,5,1007.48,27.6,52.947,584032,23:18:24:662
-0.0542,-0.0389,0.0865,82.35,5,1007.52,27.5,52.401,585032,23:18:25:662
0.0425,-0.0014,0.0695,82.35,5,1007.78,27.5,44.525,586032,23:18:26:662
-0.0096,-0.0293,-0.0464,82.35,5,1007.72,27.6,37.798,587033,23:18:27:663
-0.0282,-0.021,0.0191,82.35,5,1007.65,27.6,51.264,588032,23:18:28:662
0.0238,-0.068,0.031,82.35,5,1007.57,27.6,47.5,589033,23:18:29:663
0.0183,0.0207,-0.0507,82.35,5,1007.52,27.6,50.804,590032,23:18:30:662
-0.0018,-0.0607,0.0248,82.35,5,1007.52,27.6,42.355,591032,23:18:31:662
-0.0521,0.028,0.0313,82.35,5,1007.52,27.6,38.847,592032,23:18:32:662
-0.0144,-0.0216,0.0321,82.35,5,1007.5,27.6,37.962,593033,23:18:33:663
0.0813,-0.0048,0.0013,82.35,5,1007.51,27.6,33.59,594032,23:18:34:662
-0.0613,-0.0122,0.0159,82.35,5,1007.49,27.6,34.928,595032,23:18:35:662
0.0711,0.0247,0.0621,82.35,5,1007.48,27.6,34.161,596032,23:18:36:662
0.0434,7.00E-04,1.00E-04,82.35,5,1007.47,27.6,34.837,597032,23:18:37:662
0.0276,-0.0341,0.0152,82.35,5,1007.5,27.6,34.346,598033,23:18:38:663
0.0239,0.0217,0.0869,82.35,5,1007.48,27.6,34.172,599032,23:18:39:662
-0.0256,-0.0602,0.01,82.35,5,1007.5,27.6,33.665,600033,23:18:40:663
-0.0146,0.0462,-0.0407,82.35,5,1007.48,27.6,34.73,601032,23:18:41:662
-0.0191,0.0155,-0.0508,82.35,5,1007.65,27.6,33.34,602032,23:18:42:662
0.0408,0.0138,-0.0583,82.35,5,1007.6,27.6,33.514,603033,23:18:43:663
0.0015,-0.0175,0.0524,82.35,5,1007.58,27.6,33.03,604032,23:18:44:662
0.0097,-0.0481,-0.1168,82.35,5,1007.55,27.6,33.229,605032,23:18:45:662
-0.0166,-0.0075,-0.061,82.35,5,1007.53,27.6,34.817,606032,23:18:46:662
0.012,0.0561,-0.0168,82.35,5,1007.5,27.6,33.408,607033,23:18:47:663
0.0372,-0.0698,0.0287,82.35,5,1007.51,27.6,33.583,608032,23:18:48:662
0.0224,-0.0413,-0.0093,82.35,5,1007.53,27.6,34.831,609033,23:18:49:663
-0.0481,-0.0094,-0.0333,82.35,5,1007.52,27.6,35.039,610032,23:18:50:662
0.0416,0.0097,0.0492,82.35,5,1007.49,27.6,34.335,611032,23:18:51:662
-0.0045,-0.0147,0.0075,82.35,5,1007.52,27.6,34.847,612033,23:18:52:663
0.0492,-0.0061,-0.0862,82.35,5,1007.54,27.6,34.997,613032,23:18:53:662
-0.0205,-0.0113,-0.0129,82.35,5,1007.51,27.6,35.291,614033,23:18:54:663
-0.0086,0.0074,-0.0392,82.35,5,1007.52,27.6,35.471,615032,23:18:55:662
-0.0118,0.0089,0.0329,82.35,5,1007.5,27.6,35.428,616032,23:18:56:662
0.0121,0.0378,-0.058,82.35,5,1007.51,27.6,35.413,617032,23:18:57:662
-8.00E-04,0.0219,0.0489,82.35,5,1007.48,27.6,35.706,618032,23:18:58:662
0.0149,-0.0131,0.0077,82.35,5,1007.47,27.5,36.538,619033,23:18:59:663
0.0044,-0.0338,-0.0335,82.35,5,1007.45,27.5,41.332,620032,23:19:00:662
0.0193,-0.0108,-0.0596,82.35,5,1007.5,27.5,40.759,621032,23:19:01:662
0.04,-0.0265,-0.0503,82.35,5,1007.46,27.5,45.966,622032,23:19:02:662
0.0446,-0.0057,0.081,82.35,5,1007.45,27.5,47.725,623032,23:19:03:662
-0.0349,-0.009,0.0363,82.35,5,1007.44,27.5,49.41,624032,23:19:04:662
-0.0173,0.0126,0.0596,82.35,5,1007.46,27.5,50.013,625032,23:19:05:662
6.00E-04,-0.0108,0.0205,82.35,5,1007.44,27.5,49.888,626033,23:19:06:663
-0.0065,-0.0143,-0.0584,82.35,5,1007.43,27.5,50.431,627033,23:19:07:663
-0.025,0.0277,-0.0408,82.35,5,1007.42,27.5,49.79,628032,23:19:08:662
0.0124,-0.0391,0.0286,82.35,5,1007.4,27.5,49.858,629033,23:19:09:663
0.0264,0.0108,-0.0318,82.35,5,1007.4,27.5,49.319,630032,23:19:10:662
0.023,0.0549,0.0582,82.35,5,1007.41,27.5,50.574,631033,23:19:11:663
-0.0282,0.0017,0.0226,82.35,5,1007.43,27.5,44.178,632033,23:19:12:663
-0.0073,-0.0142,-0.0386,82.35,5,1007.41,27.5,51.422,633032,23:19:13:662
-0.0337,0.0216,0.0289,82.35,5,1007.43,27.5,51.655,634033,23:19:14:663
-0.0096,-0.0083,-0.0148,82.35,5,1007.43,27.5,43.44,635032,23:19:15:662
-0.0143,0.0082,0.0011,82.35,5,1007.43,27.5,37.234,636032,23:19:16:662
-0.0367,-0.0251,0.0774,82.35,5,1007.52,27.5,35.718,637032,23:19:17:662
0.0388,-0.0041,-0.0229,82.35,5,1007.65,27.5,37.02,638032,23:19:18:662
-0.0052,-0.0039,-0.0267,82.35,5,1007.64,27.6,35.936,639032,23:19:19:662
0.0367,0.0291,0.0018,82.35,5,1007.59,27.6,36.282,640032,23:19:20:662
0.0181,0.0309,0.0545,82.35,5,1007.6,27.6,35.86,641032,23:19:21:662
-0.0506,-0.0404,-0.0412,82.35,5,1007.56,27.6,35.591,642032,23:19:22:662
-0.0288,0.0646,0.0161,82.35,5,1007.55,27.6,36.754,643032,23:19:23:662
0.0122,-0.0148,0.033,82.35,5,1007.54,27.6,53.245,644032,23:19:24:662
-0.0289,-0.0284,0.0188,82.35,5,1007.57,27.6,53.277,645032,23:19:25:662
-0.0373,-0.0149,-0.0394,82.35,5,1007.59,27.6,46.101,646033,23:19:26:663
0.0229,0.0053,-0.0038,82.35,5,1007.57,27.6,51.355,647032,23:19:27:662
-0.0233,1.00E-04,0.0045,82.35,5,1007.56,27.6,51.694,648032,23:19:28:662
-0.0534,0.0349,0.025,82.35,5,1007.57,27.6,47.864,649032,23:19:29:662
-0.0273,-0.0127,0.0442,82.35,5,1007.59,27.6,48.183,650032,23:19:30:662
-0.0539,0.0535,-0.0415,82.35,5,1007.61,27.6,53.049,651032,23:19:31:662
1.00E-04,-0.0353,0.0151,82.35,5,1007.61,27.6,57.99,652032,23:19:32:662
-0.0286,-0.0468,-0.0681,82.35,5,1007.59,27.6,55.146,653032,23:19:33:662
0.0483,0.0233,-0.1021,82.35,5,1007.59,27.5,57.049,654033,23:19:34:663
0.0029,0.0206,-0.008,82.35,5,1007.58,27.5,56.572,655032,23:19:35:662
0.0018,-0.0229,-0.0598,82.35,5,1007.56,27.5,57.223,656033,23:19:36:663
0.016,0.0255,-0.0237,82.35,5,1007.56,27.6,51.793,657032,23:19:37:662
-0.0609,-0.0098,-0.0067,82.35,5,1007.58,27.5,55.237,658032,23:19:38:662
0.0194,0.0272,0.0695,82.35,5,1007.56,27.5,57.173,659033,23:19:39:663
-0.0344,-0.0174,-0.0403,82.35,5,1007.56,27.5,57.154,660032,23:19:40:662
0.0108,0.086,0.0368,82.35,5,1007.56,27.5,56.593,661032,23:19:41:662
-0.0401,-0.0161,-0.1012,82.35,5,1007.53,27.5,57.958,662032,23:19:42:662
0.0534,-0.0827,-0.0603,82.35,5,1007.57,27.5,56.614,663032,23:19:43:662
-0.0329,0.0506,0.0624,82.35,5,1007.56,27.5,55.754,664033,23:19:44:663
-0.0326,0.0065,0.0472,82.35,5,1007.57,27.5,53.889,665032,23:19:45:662
-0.0167,-0.0035,-8.00E-04,82.35,5,1007.58,27.5,55.545,666032,23:19:46:662
0.0218,-0.0112,-0.0789,82.35,5,1007.57,27.5,52.403,667032,23:19:47:662
0.0141,0.0098,-0.0417,82.35,5,1007.57,27.5,51.64,668032,23:19:48:662
-0.042,-0.0127,0.0678,82.35,5,1007.57,27.5,55.294,669032,23:19:49:662
0.076,0.0039,0.0242,82.35,5,1007.59,27.5,54.514,670032,23:19:50:662
-0.0204,-0.0377,-0.0015,82.35,5,1007.57,27.5,57.233,671032,23:19:51:662
-0.0119,0.016,0.0075,82.35,5,1007.58,27.5,53.893,672032,23:19:52:662
-0.0265,-0.0663,-0.058,82.35,5,1007.58,27.5,56.201,673032,23:19:53:662
-0.0111,0.0049,0.0327,82.35,5,1007.58,27.5,54.825,674033,23:19:54:663
-0.0015,0.0339,-0.017,82.35,5,1007.58,27.5,53.875,675032,23:19:55:662
0.014,-0.0398,-0.033,82.35,5,1007.6,27.5,56.039,676032,23:19:56:662
0.0329,-0.0206,-0.001,82.35,5,1007.6,27.5,51.354,677033,23:19:57:663
-0.028,0.0448,-0.0115,82.35,5,1007.58,27.5,53.597,678032,23:19:58:662
0.0144,0.0524,0.0335,82.35,5,1007.57,27.5,54.087,679033,23:19:59:663
-0.0044,-0.002,0.0239,82.35,5,1007.58,27.5,55.46,680032,23:20:00:662
-0.0526,0.0182,-5.00E-04,82.35,5,1007.58,27.5,55.646,681032,23:20:01:662
-0.06,-0.0396,-0.0189,82.35,5,1007.56,27.5,55.438,682033,23:20:02:663
0.0094,-0.0069,0.0999,82.35,5,1007.58,27.5,55.53,683033,23:20:03:663
-0.0332,-0.0142,0.0852,82.35,5,1007.57,27.5,57.956,684032,23:20:04:662
-0.1003,-0.0244,0.0558,82.35,5,1007.57,27.5,55.471,685032,23:20:05:662
-0.0367,0.0149,-0.0334,82.35,5,1007.57,27.5,55.318,686032,23:20:06:662
-0.0272,0.0402,0.0348,82.35,5,1007.59,27.5,50.584,687032,23:20:07:662
-0.0179,-0.0383,-0.0203,82.35,5,1007.59,27.5,54.312,688032,23:20:08:662
-0.0299,0.0477,-0.0132,82.35,5,1007.61,27.5,57.182,689033,23:20:09:663
0.0434,0.0251,0.0099,82.35,5,1007.63,27.5,55.774,690032,23:20:10:662
-0.0103,-0.0355,-0.0138,82.35,5,1007.62,27.5,55.538,691033,23:20:11:663
0.0352,0.0062,-0.0171,82.35,5,1007.64,27.5,55.085,692032,23:20:12:662
0.0148,-0.0565,0.0566,82.35,5,1007.65,27.5,58.598,693032,23:20:13:662
0.0153,0.0339,0.0219,82.35,5,1007.64,27.5,49.727,694032,23:20:14:662
0.0095,-0.052,-0.0135,82.35,5,1007.62,27.5,53.767,695032,23:20:15:662
-0.039,0.0245,0.0177,82.35,5,1007.62,27.5,51.82,696032,23:20:16:662
-0.017,-0.002,0.0869,82.35,5,1007.62,27.5,46.91,697032,23:20:17:662
0.0183,-0.0364,-0.17,82.35,5,1007.61,27.5,53.85,698033,23:20:18:663
-0.0205,-0.0287,0.0534,82.35,5,1007.61,27.5,49.879,699032,23:20:19:662
-0.0632,0.0087,0.0364,82.35,5,1007.59,27.5,56.368,700032,23:20:20:662
-0.0027,-0.0403,-0.0248,82.35,5,1007.6,27.5,53.062,701032,23:20:21:662
-0.0286,-0.06,0.0212,82.35,5,1007.57,27.5,53.176,702032,23:20:22:662
-0.0151,-0.0047,-0.0258,82.35,5,1007.56,27.5,53.202,703032,23:20:23:662
0.0071,-0.0312,0.0253,82.35,5,1007.52,27.5,54.896,704032,23:20:24:662
-0.0288,-0.0216,-0.0013,82.35,5,1007.57,27.5,56.002,705032,23:20:25:662
0.0421,5.00E-04,0.0125,82.35,5,1007.57,27.5,56.322,706033,23:20:26:663
0.0016,0.0126,0.0133,82.35,5,1007.57,27.5,58.273,707032,23:20:27:662
-0.0945,0.0531,-0.0147,82.35,5,1007.56,27.5,56.186,708033,23:20:28:663
-0.0591,0.019,0.0297,82.35,5,1007.54,27.5,56.426,709032,23:20:29:662
0.089,-0.0345,-0.1022,82.35,5,1007.55,27.5,55.845,710033,23:20:30:663
-4.00E-04,-0.0323,0.0087,82.35,5,1007.54,27.5,57.589,711032,23:20:31:662
0.0301,-0.0077,-0.0591,82.35,5,1007.55,27.5,54.616,712033,23:20:32:663
-0.051,-0.0016,-0.0173,82.35,5,1007.57,27.5,56.537,713032,23:20:33:662
0.0013,0.0117,0.0186,82.35,5,1007.57,27.5,52.141,714032,23:20:34:662
-0.0324,-0.0151,0.0753,82.35,5,1007.59,27.5,54.117,715033,23:20:35:663
0.0258,0.0077,0.0327,82.35,5,1007.59,27.5,57.266,716032,23:20:36:662
-0.0078,0.0354,-0.0594,82.35,5,1007.6,27.5,56.863,717032,23:20:37:662
0.0053,0.0417,0.0403,82.35,5,1007.59,27.5,55.943,718033,23:20:38:663
-0.046,-0.016,-0.0101,82.35,5,1007.63,27.5,54.87,719032,23:20:39:662
0.0809,0.0292,0.1052,82.35,5,1007.85,27.5,56.377,720032,23:20:40:662
0.0126,-0.0427,0.0405,82.35,5,1007.81,27.5,56.284,721033,23:20:41:663
0.0266,-0.0103,0.0207,82.35,5,1007.73,27.6,57.915,722032,23:20:42:662
-0.0206,0.0191,0.0509,82.35,5,1007.69,27.6,55.285,723032,23:20:43:662
-0.0136,0.0212,-0.0214,82.35,5,1007.66,27.6,52.049,724032,23:20:44:662
-0.0021,-0.0508,0.0898,82.35,5,1007.64,27.6,55.32,725032,23:20:45:662
-0.021,0.0573,0.0086,82.35,5,1007.64,27.6,56.97,726032,23:20:46:662
0.0462,-0.0139,0.0279,82.35,5,1007.62,27.6,57.305,727032,23:20:47:662
0.0611,0.0124,0.0338,82.35,5,1007.6,27.6,55.192,728032,23:20:48:662
-0.0192,0.0504,0.027,82.35,5,1007.59,27.6,57.173,729033,23:20:49:663
0.0724,-0.0119,-0.085,82.35,5,1007.6,27.6,56.279,730032,23:20:50:662
0.0261,-0.0814,0.0461,82.35,5,1007.57,27.6,56.234,731033,23:20:51:663
-0.0215,0.0354,-0.0182,82.35,5,1007.59,27.5,53.932,732032,23:20:52:662
0.0302,-0.0433,-0.0058,82.35,5,1007.58,27.5,56.007,733032,23:20:53:662
-0.0229,-0.0245,-0.0218,82.35,5,1007.6,27.5,54.997,734033,23:20:54:663
0.0362,0.0179,0.0282,82.35,5,1007.62,27.5,55.783,735032,23:20:55:662
-0.0117,-0.0047,0.0041,82.35,5,1007.59,27.5,55.241,736032,23:20:56:662
-0.0624,0.0061,0.0013,82.35,5,1007.6,27.5,54.816,737033,23:20:57:663
0.0134,-0.0322,-0.0225,82.35,5,1007.59,27.5,53.128,738032,23:20:58:662
-0.0163,0.0343,0.0088,82.35,5,1007.67,27.5,54.844,739032,23:20:59:662
-0.0196,-0.0406,-0.038,82.35,5,1007.72,27.5,52.007,740033,23:21:00:663
0.0533,-0.0086,-0.0657,82.35,5,1007.69,27.6,55.426,741032,23:21:01:662
0.0067,0.0199,-1.00E-04,82.35,5,1007.67,27.6,51.302,742033,23:21:02:663
0.0471,-0.0653,-0.0395,82.35,5,1007.66,27.6,55.33,743032,23:21:03:662
-0.006,0.0063,-0.0084,82.35,5,1007.68,27.5,56.761,744032,23:21:04:662
0.0402,0.0183,-0.0152,82.35,5,1007.66,27.5,50.843,745032,23:21:05:662
0.0287,0.0286,0.0518,82.35,5,1007.65,27.5,55.872,746032,23:21:06:662
-0.0112,0.0489,0.0049,82.35,5,1007.63,27.5,55.244,747033,23:21:07:663
-0.0569,0.0489,0.0499,82.35,5,1007.63,27.5,56.363,748032,23:21:08:662
-0.0017,-0.0094,-0.0581,82.35,5,1007.64,27.5,55.77,749033,23:21:09:663
0.0354,-0.0098,0.0049,82.35,5,1007.63,27.5,57.542,750032,23:21:10:662
-0.0298,0.0578,-0.0024,82.35,5,1007.65,27.5,56.444,751033,23:21:11:663
-0.0091,-0.0177,-0.009,82.35,5,1007.65,27.5,53.064,752032,23:21:12:662
0.0099,-0.0082,-0.0413,82.35,5,1007.63,27.5,53.112,753032,23:21:13:662
0.0014,0.0522,0.0433,82.35,5,1007.64,27.5,55.297,754032,23:21:14:662
0.0221,0.0616,-0.0356,82.35,5,1007.62,27.5,56.348,755032,23:21:15:662
0.0584,-0.0045,0.0647,82.35,5,1007.61,27.5,53.705,756032,23:21:16:662
0.0739,-0.0219,-0.0457,82.35,5,1007.6,27.5,54.861,757033,23:21:17:663
-0.0172,-0.0281,0.0686,82.35,5,1007.61,27.5,54.666,758032,23:21:18:662
-0.0074,-0.032,-0.0769,82.35,5,1007.67,27.5,58.182,759032,23:21:19:662
0.0191,0.0261,-0.0129,82.35,5,1007.65,27.5,49.354,760032,23:21:20:662
0.0031,0.0117,-0.0787,82.35,5,1007.64,27.5,55.306,761033,23:21:21:663
-0.0514,0.0208,0.0324,82.35,5,1007.62,27.5,56.813,762032,23:21:22:662
-0.0132,0.0199,0.0149,82.35,5,1007.62,27.5,54.795,763032,23:21:23:662
0.0112,-0.0498,0.0773,82.35,5,1007.62,27.5,57.495,764033,23:21:24:663
-0.0575,-0.0017,0.0398,82.35,5,1007.64,27.5,55.9,765032,23:21:25:662
-0.0458,0.0106,0.0799,82.35,5,1007.62,27.5,57.426,766032,23:21:26:662
0.0173,0.058,-0.0337,82.35,5,1007.64,27.5,56.268,767032,23:21:27:662
0.0072,0.014,0.0269,82.35,5,1007.64,27.5,56.985,768032,23:21:28:662
0.0498,-2.00E-04,-0.0165,82.35,5,1007.63,27.5,54.959,769032,23:21:29:662
-0.0508,0.0019,-0.0177,82.35,5,1007.62,27.5,57.579,770032,23:21:30:662
0.035,0.0359,-0.0487,82.35,5,1007.64,27.5,54.532,771032,23:21:31:662
0.0227,-0.0086,-0.0172,82.35,5,1007.65,27.5,56.103,772033,23:21:32:663
0.0423,0.0113,-0.0136,82.35,5,1007.64,27.5,56.798,773032,23:21:33:662
-0.0238,-0.0208,-0.0228,82.35,5,1007.74,27.5,58.184,774032,23:21:34:662
0.0473,-0.026,0.0279,82.35,5,1007.72,27.5,58.632,775032,23:21:35:662
0.0317,0.009,-0.0206,82.35,5,1007.7,27.5,56.397,776033,23:21:36:663
-0.0411,-0.0212,0.0171,82.35,5,1007.65,27.5,57.557,777032,23:21:37:662
0.0224,-0.043,0.0353,82.35,5,1007.63,27.5,56.692,778032,23:21:38:662
0.0111,-0.0266,0.0641,82.35,5,1007.63,27.5,56.63,779033,23:21:39:663
0.0089,0.0011,-0.0284,82.35,5,1007.63,27.5,55.527,780032,23:21:40:662
-0.0169,0.03,-0.0249,82.35,5,1007.62,27.5,57.576,781033,23:21:41:663
0.0156,-0.0707,0.0292,82.35,5,1007.62,27.5,58.647,782032,23:21:42:662
-0.0258,-0.0023,0.0345,82.35,5,1007.63,27.5,56.537,783032,23:21:43:662
-5.00E-04,0.002,-0.0214,82.35,5,1007.62,27.5,52.463,784032,23:21:44:662
-0.0249,-0.0294,-0.0032,82.35,5,1007.61,27.5,56.266,785033,23:21:45:663
0.0367,-0.0239,0.0733,82.35,5,1007.59,27.5,53.895,786032,23:21:46:662
0.0774,-0.0248,0.0287,82.35,5,1007.61,27.5,58.335,787032,23:21:47:662
0.0021,0.0286,0.0649,82.35,5,1007.64,27.5,53.551,788033,23:21:48:663
0.0612,0.0204,0.0369,82.35,5,1007.62,27.5,58.16,789032,23:21:49:662
-0.0286,-0.0133,0.036,82.35,5,1007.63,27.5,54.526,790033,23:21:50:663
-0.0532,-0.0239,0.0219,82.35,5,1007.62,27.5,56.758,791032,23:21:51:662
-0.0055,0.0121,-0.1029,82.35,5,1007.64,27.5,59.555,792032,23:21:52:662
-0.0191,0.0227,-0.0046,82.35,5,1007.62,27.5,58.726,793032,23:21:53:662
-0.0107,-0.0399,0.0181,82.35,5,1007.62,27.5,58.23,794033,23:21:54:663
-0.0594,0.0329,0.0377,82.35,5,1007.62,27.5,56.426,795032,23:21:55:662
0.0311,-0.0594,-0.0677,82.35,5,1007.63,27.5,58.838,796032,23:21:56:662
0.0039,-0.0011,0.0793,82.35,5,1007.63,27.5,56.45,797032,23:21:57:662
0.0032,0.0662,0.0123,82.35,5,1007.61,27.5,56.423,798032,23:21:58:662
0.0329,-0.0215,0.0279,82.35,5,1007.62,27.5,58.39,799032,23:21:59:662
-0.0092,0.0638,0.0067,82.35,5,1007.63,27.5,59.225,800033,23:22:00:663
0.0108,-0.0097,0.026,82.35,5,1007.62,27.5,57.693,801032,23:22:01:662
-0.0046,-0.0162,-0.0167,82.35,5,1007.64,27.5,58.064,802033,23:22:02:663
-0.0573,0.0445,-0.0073,82.35,5,1007.64,27.5,58.473,803032,23:22:03:662
0.008,0.0148,0.0514,82.35,5,1008.09,27.5,58.854,804033,23:22:04:663
-0.0544,0.0122,-0.0166,82.35,5,1008.37,27.6,56.462,805032,23:22:05:662
-0.0424,-0.0558,0.0032,82.35,5,1008.19,27.6,58.124,806032,23:22:06:662
-0.015,0.0021,0.0026,82.35,5,1008.01,27.7,57.664,807032,23:22:07:662
0.0196,0.0356,6.00E-04,82.35,5,1007.85,27.7,56.693,808032,23:22:08:662
0.0693,0.0139,0.037,82.35,5,1007.91,27.7,56.886,809032,23:22:09:662
-0.0346,0.0432,-0.072,82.35,5,1007.81,27.7,60.069,810032,23:22:10:662
0.0255,0.016,0.0134,82.35,5,1007.71,27.7,57.514,811033,23:22:11:663
0.0142,-0.0466,0.0433,82.35,5,1007.64,27.7,56.982,812032,23:22:12:662
-0.0812,0.0118,0.0708,82.35,5,1007.58,27.7,56.592,813033,23:22:13:663
-0.0117,-0.0389,-0.0505,82.35,5,1007.69,27.7,59.536,814032,23:22:14:662
-0.0423,-0.0039,-0.0065,82.35,5,1007.62,27.7,54.017,815032,23:22:15:662
0.0334,-0.0073,0.0295,82.35,5,1007.6,27.7,56.645,816032,23:22:16:662
0.0194,0.0544,0.0155,82.35,5,1007.53,27.7,55.06,817032,23:22:17:662
-0.0228,0.0528,0.0482,82.35,5,1007.52,27.7,58.395,818032,23:22:18:662
0.0102,-0.005,0.0773,82.35,5,1007.49,27.7,57.268,819033,23:22:19:663
-0.0573,-0.0112,-0.0136,82.35,5,1007.54,27.7,58.534,820033,23:22:20:663
0.0174,-0.039,-0.0491,82.35,5,1007.51,27.7,59.447,821032,23:22:21:662
0.0188,0.0177,-0.007,82.35,5,1007.5,27.7,55.485,822032,23:22:22:662
-0.0011,-0.024,0.0375,82.35,5,1007.5,27.7,55.525,823032,23:22:23:662
-0.0273,-0.0267,-0.0114,82.35,5,1007.48,27.7,55.175,824033,23:22:24:663
-0.023,-0.0132,0.0257,82.35,5,1007.57,27.7,57.351,825032,23:22:25:662
-0.0028,-0.0031,0.1127,82.35,5,1007.55,27.7,51.844,826032,23:22:26:662
0.0351,0.0302,-0.0549,82.35,5,1007.51,27.7,56.605,827033,23:22:27:663
-0.0021,0.0436,-0.0055,82.35,5,1007.5,27.7,55.487,828032,23:22:28:662
5.00E-04,-0.0132,0.0156,82.35,5,1007.5,27.7,57.207,829032,23:22:29:662
-0.0446,0.0239,-0.0266,82.35,5,1007.54,27.7,56.715,830032,23:22:30:662
0.0686,0.0037,0.0805,82.35,5,1007.53,27.7,54.752,831033,23:22:31:663
0.0047,-0.0096,-0.0193,82.35,5,1007.5,27.7,55.861,832032,23:22:32:662
-0.0041,-0.071,-0.0194,82.35,5,1007.49,27.7,57.018,833033,23:22:33:663
-0.0303,-0.0087,-0.0413,82.35,5,1007.47,27.6,56.747,834032,23:22:34:662
-0.0402,-0.0271,0.0143,82.35,5,1007.49,27.6,53.252,835032,23:22:35:662
-0.0091,0.031,0.064,82.35,5,1007.61,27.6,56.534,836032,23:22:36:662
-0.0368,0.0519,0.0465,82.35,5,1007.57,27.7,55.535,837032,23:22:37:662
-0.0147,0.0253,-0.0483,82.35,5,1007.52,27.7,55.996,838032,23:22:38:662
-0.0165,-0.0348,-0.0548,82.35,5,1007.51,27.7,58.156,839033,23:22:39:663
0.0436,-0.0148,0.0644,82.35,5,1007.48,27.7,55.737,840032,23:22:40:662
-0.0219,-0.0282,0.0843,82.35,5,1007.55,27.6,57.188,841032,23:22:41:662
-0.0476,-0.0101,-0.0901,82.35,5,1007.5,27.7,56.55,842032,23:22:42:662
-0.0424,0.0483,-0.0339,82.35,5,1007.49,27.6,56.95,843032,23:22:43:662
9.00E-04,-0.0524,0.0208,82.35,5,1007.49,27.6,55.764,844033,23:22:44:663
0.0177,0.0359,-0.0201,82.35,5,1007.48,27.6,56.092,845032,23:22:45:662
8.00E-04,-0.0044,-0.0145,82.35,5,1007.53,27.6,55.59,846033,23:22:46:663
-0.0349,0.0463,0.0183,82.35,5,1007.64,27.6,52.838,847032,23:22:47:662
0.0157,0.0228,-0.0743,82.35,5,1007.61,27.7,56.302,848032,23:22:48:662
0.0173,0.0196,0.0017,82.35,5,1007.59,27.7,55.535,849033,23:22:49:663
-0.0109,-0.06,0.0033,82.35,5,1007.55,27.7,55.09,850032,23:22:50:662
-0.069,0.0158,0.0024,82.35,5,1007.69,27.7,54.282,851033,23:22:51:663
0.0108,-0.0482,-0.0512,82.35,5,1007.68,27.7,55.244,852033,23:22:52:663
-0.0172,0.0104,0.0066,82.35,5,1007.61,27.7,58.321,853032,23:22:53:662
0.0339,0.0085,-0.0168,82.35,5,1007.57,27.7,54.541,854033,23:22:54:663
-0.0224,-0.0233,-0.0638,82.35,5,1007.55,27.7,56.918,855032,23:22:55:662
-0.076,0.0017,-0.0235,82.35,5,1007.53,27.7,51.951,856033,23:22:56:663
0.0607,0.0359,0.0193,82.35,5,1007.5,27.7,57.654,857032,23:22:57:662
0.0038,0.0064,-0.0372,82.35,5,1007.5,27.7,55.253,858033,23:22:58:663
0.0042,0.0299,0.0443,82.35,5,1007.5,27.7,54.379,859032,23:22:59:662
-0.0299,-0.0106,-0.0192,82.35,5,1007.49,27.7,55.897,860032,23:23:00:662
-0.0023,-0.058,0.0078,82.35,5,1007.49,27.7,56.956,861032,23:23:01:662
-0.0263,-0.027,-0.0577,82.35,5,1007.47,27.7,55.217,862033,23:23:02:663
0.0165,0.0026,0.0706,82.35,5,1007.47,27.6,55.492,863032,23:23:03:662
-0.0178,-0.0038,-0.0572,82.35,5,1007.47,27.6,53.277,864032,23:23:04:662
-0.0545,0.0263,0.046,82.35,5,1007.46,27.6,58.761,865032,23:23:05:662
-0.0248,-0.0082,-0.0508,82.35,5,1007.48,27.6,56.04,866033,23:23:06:663
-0.0029,-0.0339,0.002,82.35,5,1007.51,27.6,55.845,867032,23:23:07:662
0.0218,-0.0274,-0.0453,82.35,5,1007.51,27.6,57.137,868032,23:23:08:662
-0.0243,-0.01,-0.0113,82.35,5,1007.51,27.6,56.769,869032,23:23:09:662
0.0046,-0.0122,0.0538,82.35,5,1007.51,27.6,56.955,870032,23:23:10:662
0.0829,-0.0132,0.0145,82.35,5,1007.5,27.6,57.174,871032,23:23:11:662
-0.0204,0.0033,0.0558,82.35,5,1007.52,27.6,58.078,872032,23:23:12:662
0.0386,-0.0488,-0.0192,82.35,5,1007.51,27.6,55.03,873032,23:23:13:662
0.066,-0.0248,-0.011,82.35,5,1007.5,27.6,56.393,874032,23:23:14:662
0.0271,-0.0248,-0.0753,82.35,5,1007.48,27.6,55.55,875032,23:23:15:662
0.0036,0.0141,0.0299,82.35,5,1007.48,27.6,59.156,876032,23:23:16:662
0.0344,0.0019,0.0241,82.35,5,1007.8,27.6,55.474,877032,23:23:17:662
-0.0141,-0.0081,-0.0146,82.35,5,1007.71,27.7,57.391,878032,23:23:18:662
0.0216,0.0492,-0.0051,82.35,5,1007.64,27.7,54.817,879032,23:23:19:662
-0.0467,0.0114,0.0765,82.35,5,1007.57,27.7,55.883,880032,23:23:20:662
-0.0107,-0.003,0.0445,82.35,5,1007.53,27.7,55.684,881032,23:23:21:662
-0.0349,-0.0177,-0.0303,82.35,5,1007.5,27.7,55.857,882032,23:23:22:662
-0.0587,0.0287,0.0415,82.35,5,1007.47,27.7,57.242,883032,23:23:23:662
-0.0459,-0.028,-0.0351,82.35,5,1007.45,27.7,56.708,884032,23:23:24:662
0.0092,-0.0797,-0.0193,82.35,5,1007.46,27.7,56.978,885033,23:23:25:663
-0.0054,-5.00E-04,0.0267,82.35,5,1007.57,27.7,57.54,886033,23:23:26:663
-0.069,0.038,0.006,82.35,5,1007.73,27.7,58.997,887032,23:23:27:662
0.1393,0.0053,0.0515,82.35,5,1007.65,27.7,56.114,888033,23:23:28:663
-0.008,0.0177,0.0206,82.35,5,1007.56,27.7,48.897,889032,23:23:29:662
-0.0236,0.0073,-0.0377,82.35,5,1007.52,27.7,42.828,890032,23:23:30:662
-0.0042,-0.0152,0.0105,82.35,5,1007.47,27.7,34.848,891032,23:23:31:662
0.0269,0.0217,0.0224,82.35,5,1007.45,27.7,33.324,892032,23:23:32:662
-0.0193,0.0083,0.0032,82.35,5,1007.44,27.7,33.547,893032,23:23:33:662
0.0481,-0.0257,-0.0451,82.35,5,1007.44,27.7,35.931,894032,23:23:34:662
0.0084,-0.0256,-0.0331,82.35,5,1007.42,27.7,35.3,895032,23:23:35:662
0.042,-0.0267,-0.0266,82.35,5,1007.42,27.7,35.946,896032,23:23:36:662
0.0014,-0.0401,-0.0108,82.35,5,1007.4,27.7,34.765,897032,23:23:37:662
-0.0136,-0.0344,-0.0065,82.35,5,1007.4,27.7,38.968,898032,23:23:38:662
0.0035,-0.0089,-0.0166,82.35,5,1007.41,27.7,35.094,899032,23:23:39:662
0.0083,-0.0352,-0.059,82.35,5,1007.42,27.6,35.354,900033,23:23:40:663
0.0601,0.0556,-0.0033,82.35,5,1007.42,27.6,37.079,901032,23:23:41:662
-0.046,-0.0183,-0.0023,82.35,5,1007.4,27.6,36.183,902032,23:23:42:662
0.014,0.0118,-0.0407,82.35,5,1007.56,27.6,37.324,903033,23:23:43:663
0.0436,0.0205,0.0569,82.35,5,1007.52,27.7,36.408,904032,23:23:44:662
0.0083,-0.0606,-0.0282,82.35,5,1007.5,27.7,36.136,905032,23:23:45:662
0.011,0.0202,-0.061,82.35,5,1007.47,27.7,44.877,906032,23:23:46:662
0.0495,-0.0217,0.0757,82.35,5,1007.45,27.7,48.794,907032,23:23:47:662
-0.01,-0.0077,0.0134,82.35,5,1007.45,27.7,49.215,908033,23:23:48:663
-0.0324,0.0402,-0.0457,82.35,5,1007.43,27.7,50.762,909033,23:23:49:663
0.027,-0.0185,-0.0075,82.35,5,1007.43,27.6,50.905,910032,23:23:50:662
0.0297,0.056,-0.0633,82.35,5,1007.43,27.6,49.39,911033,23:23:51:663
0.024,-0.0083,0.003,82.35,5,1007.42,27.6,47.073,912032,23:23:52:662
0.0105,0.042,0.0797,82.35,5,1007.4,27.6,44.015,913032,23:23:53:662
-0.0412,0.0227,-0.1059,82.35,5,1007.41,27.6,45.671,914032,23:23:54:662
0.0168,0.0207,0.0175,82.35,5,1007.44,27.6,51.827,915032,23:23:55:662
0.0234,0.0062,0.0059,82.35,5,1007.41,27.6,46.96,916032,23:23:56:662
0.018,0.03,0.0279,82.35,5,1007.43,27.6,49.326,917033,23:23:57:663
0.0175,0.052,0.0065,82.35,5,1007.44,27.6,52.074,918032,23:23:58:662
0.0332,0.0483,-0.0248,82.35,5,1007.45,27.6,50.699,919033,23:23:59:663
0.0025,-0.0682,-0.0753,82.35,5,1007.43,27.6,49.222,920033,23:24:00:663
0.001,0.0292,0.0039,82.35,5,1007.44,27.6,47.278,921032,23:24:01:662
0.0701,0.0088,0.0082,82.35,5,1007.42,27.6,47.088,922032,23:24:02:662
-0.0101,0.0098,0.0672,82.35,5,1007.46,27.6,49.763,923033,23:24:03:663
0.0437,-0.0166,-0.0476,82.35,5,1007.45,27.6,48.8,924032,23:24:04:662
-0.009,-0.0668,-0.0437,82.35,5,1007.47,27.6,48.14,925032,23:24:05:662
-0.0294,-0.0068,-0.0623,82.35,5,1007.47,27.6,47.833,926032,23:24:06:662
0.0257,0.013,-0.0491,82.35,5,1007.49,27.6,47.908,927033,23:24:07:663
-0.0346,-0.0217,-0.0057,82.35,5,1007.49,27.6,48.171,928032,23:24:08:662
-0.0261,0.0136,-0.0156,82.35,5,1007.47,27.6,54.7,929033,23:24:09:663
-0.0039,0.0259,-0.0328,82.35,5,1007.47,27.6,55.037,930033,23:24:10:663
0.0396,0.0406,0.0327,82.35,5,1007.51,27.6,54.056,931032,23:24:11:662
0.0601,0.0282,-0.0424,82.35,5,1007.47,27.6,55.439,932033,23:24:12:663
-0.0056,0.0027,0.0353,82.35,5,1007.46,27.6,52.424,933032,23:24:13:662
-0.0378,0.0173,0.0171,82.35,5,1007.49,27.6,49.974,934033,23:24:14:663
-0.0361,-0.0174,-0.0511,82.35,5,1007.49,27.6,46.25,935032,23:24:15:662
0.0559,-0.0525,-0.0307,82.35,5,1007.5,27.6,46.004,936033,23:24:16:663
0.0157,0.0226,0.0369,82.35,5,1007.46,27.6,58.353,937032,23:24:17:662
-0.0292,0.0206,0.0123,82.35,5,1007.46,27.6,53.569,938033,23:24:18:663
-0.0259,-0.0082,6.00E-04,82.35,5,1007.46,27.6,53.849,939032,23:24:19:662
-0.013,0.0075,0.0802,82.35,5,1007.48,27.6,56.447,940032,23:24:20:662
-0.0112,0.0104,-0.035,82.35,5,1007.46,27.6,52.882,941032,23:24:21:662
0.0242,0.019,-0.0239,82.35,5,1007.45,27.6,50.475,942032,23:24:22:662
0.0239,-0.0165,-0.009,82.35,5,1007.42,27.6,50.275,943033,23:24:23:663
-0.0453,-0.0476,-0.0203,82.35,5,1007.44,27.6,49.7,944032,23:24:24:662
0.0091,-0.0077,-0.0063,82.35,5,1007.43,27.6,52.588,945032,23:24:25:662
0.0235,0.0188,-0.0786,82.35,5,1007.43,27.6,50.459,946032,23:24:26:662
-0.0118,0.0046,-0.0286,82.35,5,1007.43,27.6,48.836,947033,23:24:27:663
-0.0175,0.0304,0.0111,82.35,5,1007.41,27.6,44.697,948032,23:24:28:662
-0.0353,-0.0309,-0.0092,82.35,5,1007.43,27.6,52.4,949033,23:24:29:663
-0.0483,0.0018,-0.0054,82.35,5,1007.45,27.6,49.15,950032,23:24:30:662
0.0429,-0.0164,-0.1115,82.35,5,1007.43,27.6,51.28,951032,23:24:31:662
0.0137,-0.0501,0.2799,82.35,5,1007.41,27.6,55.791,952032,23:24:32:662
0.011,-0.0092,0.0415,82.35,5,1007.41,27.6,53.097,953032,23:24:33:662
0.0434,-0.0036,0.0269,82.35,5,1007.4,27.6,57.281,954033,23:24:34:663
-0.0039,0.0078,8.00E-04,82.35,5,1007.39,27.6,59.103,955032,23:24:35:662
-0.0291,-0.0375,-0.0524,82.35,5,1007.41,27.6,52.025,956032,23:24:36:662
0.0263,-0.0178,-0.031,82.35,5,1007.42,27.6,52.005,957033,23:24:37:663
-0.0569,0.0085,-0.0056,82.35,5,1007.41,27.6,51.999,958032,23:24:38:662
0.0588,-0.0287,-0.0442,82.35,5,1007.4,27.6,55.087,959033,23:24:39:663
-0.0221,-0.0117,-0.033,82.35,5,1007.6,27.6,58.147,960032,23:24:40:662
0.002,0.0062,-0.0288,82.35,5,1007.54,27.6,58.883,961032,23:24:41:662
0.0254,-0.0259,-0.0615,82.35,5,1007.52,27.6,53.829,962032,23:24:42:662
0.0011,0.0273,0.025,82.35,5,1007.48,27.6,55.84,963032,23:24:43:662
-0.0563,0.0452,-0.0301,82.35,5,1007.46,27.6,53.857,964032,23:24:44:662
-0.0288,0.0221,0.072,82.35,5,1007.47,27.6,57.033,965032,23:24:45:662
-0.0117,-0.0409,-0.0269,82.35,5,1007.45,27.6,61.374,966032,23:24:46:662
0.0344,0.0071,0.0279,82.35,5,1007.43,27.6,55.912,967032,23:24:47:662
0.0054,0.0664,-0.0144,82.35,5,1007.43,27.6,56.618,968032,23:24:48:662
0.0186,-0.0229,-0.0224,82.35,5,1007.44,27.6,58.744,969032,23:24:49:662
-0.0534,-0.0164,0.0647,82.35,5,1007.73,27.6,54.688,970032,23:24:50:662
-0.0153,0.0086,0.0862,82.35,5,1007.64,27.7,56.143,971032,23:24:51:662
-0.0414,0.0219,-0.0601,82.35,5,1007.55,27.7,54.307,972033,23:24:52:663
0.0229,0.0288,0.0059,82.35,5,1007.49,27.7,55.555,973033,23:24:53:663
-0.0187,0.0309,-0.0222,82.35,5,1007.46,27.7,56.494,974032,23:24:54:662
0.0028,0.0167,-0.0116,82.35,5,1007.43,27.7,54.336,975032,23:24:55:662
0.0443,0.0342,0.0122,82.35,5,1007.43,27.7,55.318,976032,23:24:56:662
-0.0282,-0.0366,0.0158,82.35,5,1007.42,27.7,56.899,977032,23:24:57:662
-0.0353,0.0512,-0.055,82.35,5,1007.41,27.7,54.249,978033,23:24:58:663
0.0383,-0.0504,-0.1532,82.35,5,1007.39,27.7,54.87,979032,23:24:59:662
-0.0169,0.0524,0.0776,82.35,5,1007.39,27.7,56.187,980033,23:25:00:663
-0.0086,0.019,-0.0612,82.35,5,1007.39,27.6,55.201,981032,23:25:01:662
-0.0533,-0.0048,-0.0744,82.35,5,1007.4,27.6,55.014,982032,23:25:02:662
0.0704,-0.006,0.0165,82.35,5,1007.4,27.6,55.408,983032,23:25:03:662
-0.0293,0.0208,-0.0167,82.35,5,1007.42,27.6,55.812,984032,23:25:04:662
0.0101,0.0257,0.0592,82.35,5,1007.42,27.6,52.93,985032,23:25:05:662
-0.0041,-0.046,-0.0226,82.35,5,1007.42,27.6,55.032,986032,23:25:06:662
0.0522,-0.0051,8.00E-04,82.35,5,1007.44,27.6,54.43,987032,23:25:07:662
-0.0268,-0.0351,-0.0765,82.35,5,1007.4,27.6,53.247,988032,23:25:08:662
-0.026,0.0277,0.048,82.35,5,1007.43,27.6,54.436,989032,23:25:09:662
-0.0156,-0.0312,0.0409,82.35,5,1007.41,27.6,53.827,990032,23:25:10:662
-0.0021,0.0171,-0.0723,82.35,5,1007.39,27.6,54.337,991033,23:25:11:663
-0.0417,0.0225,0.1091,82.35,5,1007.4,27.6,47.73,992032,23:25:12:662
-0.0338,0.0326,0.0612,82.35,5,1007.4,27.6,51.891,993033,23:25:13:663
0.0037,-0.0505,-0.0095,82.35,5,1007.39,27.6,49.167,994032,23:25:14:662
0.0498,-0.0329,0.018,82.35,5,1007.38,27.6,46.887,995032,23:25:15:662
-0.0087,-0.0106,0.001,82.35,5,1007.39,27.6,52.796,996032,23:25:16:662
-0.0383,0.0179,9.00E-04,82.35,5,1007.4,27.6,51.827,997032,23:25:17:662
0.0129,-0.0307,0.0797,82.35,5,1007.4,27.6,52.774,998032,23:25:18:662
-0.0249,-0.0599,-0.0574,82.35,5,1007.38,27.6,52.332,999032,23:25:19:662
-0.0664,-0.0304,-0.004,82.35,5,1007.37,27.6,54.834,1000032,23:25:20:662
-0.0024,-0.0059,-0.0271,82.35,5,1007.36,27.6,51.599,1001032,23:25:21:662
0.0626,5.00E-04,0.0108,82.35,5,1007.38,27.6,52.672,1002032,23:25:22:662
-0.0815,0.0064,0.0058,82.35,5,1007.37,27.6,51.279,1003032,23:25:23:662
-0.0148,-0.0083,0.0133,82.35,5,1007.38,27.6,55.054,1004032,23:25:24:662
0.0403,-0.0163,-0.0303,82.35,5,1007.36,27.6,56.144,1005032,23:25:25:662
-0.0577,-0.01,0.0293,82.35,5,1007.37,27.6,52.934,1006032,23:25:26:662
-0.0061,-0.01,-0.0311,82.35,5,1007.36,27.6,53.994,1007032,23:25:27:662
-0.0307,0.0326,-0.0579,82.35,5,1007.36,27.6,53.581,1008032,23:25:28:662
0.0029,-2.00E-04,0.0065,82.35,5,1007.36,27.6,52.313,1009033,23:25:29:663
-0.0039,-0.0024,-0.0305,82.35,5,1007.37,27.6,54.235,1010032,23:25:30:662
-0.0104,-0.0343,0.0437,82.35,5,1007.35,27.6,53.714,1011032,23:25:31:662
0.0439,-0.0318,0.0288,82.35,5,1007.35,27.6,48.581,1012032,23:25:32:662
-0.0464,-0.0018,-0.0285,82.35,5,1007.34,27.6,55.747,1013032,23:25:33:662
0.0412,-0.0496,-0.1822,82.35,5,1007.34,27.6,53.222,1014033,23:25:34:663
-0.0181,-0.03,0.0356,82.35,5,1007.36,27.6,53.532,1015032,23:25:35:662
-0.009,0.0153,-0.0506,82.35,5,1007.35,27.6,53.779,1016032,23:25:36:662
0.001,-0.005,-0.0124,82.35,5,1007.36,27.6,50.782,1017032,23:25:37:662
0.0095,-0.0272,-0.0773,82.35,5,1007.37,27.6,46.215,1018033,23:25:38:663
0.0456,0.0174,0.0038,82.35,5,1007.37,27.6,54.185,1019032,23:25:39:662
-0.0392,-0.0433,-0.0162,82.35,5,1007.41,27.6,53.942,1020032,23:25:40:662
-0.0015,-0.0302,0.0545,82.35,5,1007.4,27.6,55.063,1021032,23:25:41:662
-0.0331,-0.0143,-0.0636,82.35,5,1007.38,27.6,54.884,1022032,23:25:42:662
0.0066,-0.0017,-0.0714,82.35,5,1007.41,27.6,53.766,1023032,23:25:43:662
-0.0112,-0.0194,0.0056,82.35,5,1007.39,27.6,52.94,1024032,23:25:44:662
-0.0186,0.0329,-0.0101,82.35,5,1007.37,27.6,51.63,1025032,23:25:45:662
-0.0174,-0.0189,0.0458,82.35,5,1007.39,27.6,52.422,1026033,23:25:46:663
-0.0061,-0.0083,0.012,82.35,5,1007.39,27.6,55.959,1027032,23:25:47:662
-0.0365,-0.0102,-0.0674,82.35,5,1007.39,27.6,53.14,1028032,23:25:48:662
-0.0019,-0.0674,0.0177,82.35,5,1007.39,27.6,53.666,1029033,23:25:49:663
-0.0195,-0.0704,0.0061,82.35,5,1007.4,27.6,47.04,1030032,23:25:50:662
-0.0353,0.0319,-0.024,82.35,5,1007.4,27.6,53.165,1031032,23:25:51:662
0.0446,0.0604,0.0614,82.35,5,1007.4,27.6,52.027,1032032,23:25:52:662
-0.0442,0.0132,0.0096,82.35,5,1007.4,27.6,51.867,1033033,23:25:53:663
-0.0463,-0.0545,-0.0012,82.35,5,1007.4,27.6,51.743,1034033,23:25:54:663
-0.0171,0.0319,-0.0544,82.35,5,1007.4,27.6,54.008,1035032,23:25:55:662
-0.0087,0.0222,0.0856,82.35,5,1007.39,27.6,51.757,1036032,23:25:56:662
-0.0192,0.037,0.0349,82.35,5,1007.39,27.6,53.174,1037032,23:25:57:662
0.0804,-0.0469,-0.0205,82.35,5,1007.41,27.6,55.577,1038032,23:25:58:662
0.0037,-0.0349,-0.0165,82.35,5,1007.63,27.6,54.234,1039033,23:25:59:663
0.0371,0.0333,-0.0187,82.35,5,1007.59,27.6,51.57,1040033,23:26:00:663
0.0152,-0.0581,-0.0193,82.35,5,1007.55,27.6,35.529,1041032,23:26:01:662
-0.0244,0.0501,0.0504,82.35,5,1007.48,27.6,34.689,1042032,23:26:02:662
-0.0134,0.0089,0.0497,82.35,5,1007.46,27.6,35.686,1043033,23:26:03:663
-0.0232,0.0116,0.0561,82.35,5,1007.42,27.6,35.411,1044032,23:26:04:662
-0.0413,-0.0301,0.0316,82.35,5,1007.44,27.6,34.132,1045032,23:26:05:662
0.0208,-0.002,-0.0506,82.35,5,1007.45,27.6,34.389,1046032,23:26:06:662
0.0154,0.0549,0.015,82.35,5,1007.44,27.6,33.459,1047032,23:26:07:662
-0.0112,0.0115,-0.0487,82.35,5,1007.42,27.6,34.641,1048032,23:26:08:662
0.0407,0.0413,-0.055,82.35,5,1007.41,27.6,34.757,1049032,23:26:09:662
0.0253,0.0139,0.0692,82.35,5,1007.43,27.6,32.789,1050033,23:26:10:663
0.0054,-0.0025,-0.048,82.35,5,1007.43,27.6,31.856,1051032,23:26:11:662
-0.0106,0.0834,0.053,82.35,5,1007.41,27.6,33.883,1052032,23:26:12:662
-0.0907,-0.0339,0.0296,82.35,5,1007.41,27.6,30.383,1053032,23:26:13:662
-0.0315,-0.036,-0.0508,82.35,5,1007.42,27.6,30.89,1054033,23:26:14:663
-0.019,-0.0204,-0.0447,82.35,5,1007.41,27.6,33.262,1055032,23:26:15:662
0.0155,-0.0094,0.0296,82.35,5,1007.43,27.6,34.318,1056033,23:26:16:663
0.0046,-0.0077,0.0317,82.35,5,1007.4,27.6,35.089,1057032,23:26:17:662
-0.0224,-0.0077,-0.0793,82.35,5,1007.4,27.6,32.711,1058032,23:26:18:662
0.0435,0.0067,0.0404,82.35,5,1007.46,27.6,33.505,1059032,23:26:19:662
-0.0155,0.0257,-0.0965,82.35,5,1007.46,27.6,33.541,1060032,23:26:20:662
-0.0217,0.0071,-0.0046,82.35,5,1007.51,27.6,34.744,1061032,23:26:21:662
-0.0205,0.0137,0.0474,82.35,5,1007.49,27.6,35.605,1062033,23:26:22:663
0.0312,0.0058,-0.0464,82.35,5,1007.47,27.7,37.772,1063032,23:26:23:662
0.0238,0.0254,0.0177,82.35,5,1007.42,27.6,36.733,1064032,23:26:24:662
0.0328,0.0707,-0.0104,82.35,5,1007.43,27.6,37.84,1065032,23:26:25:662
-0.0062,-0.0161,-0.0531,82.35,5,1007.4,27.6,36.273,1066033,23:26:26:663
0.0183,0.0482,0.064,82.35,5,1007.37,27.6,35.748,1067032,23:26:27:662
0.0237,0.0447,-0.0227,82.35,5,1007.39,27.6,37.115,1068032,23:26:28:662
-0.0187,0.0016,-0.0198,82.35,5,1007.37,27.6,36.54,1069032,23:26:29:662
0.055,0.0248,0,82.35,5,1007.39,27.6,35.244,1070032,23:26:30:662
0.0823,-0.0258,0.0559,82.35,5,1007.37,27.6,37.382,1071032,23:26:31:662
-0.0018,-0.0299,-0.074,82.35,5,1007.35,27.6,35.239,1072032,23:26:32:662
-0.0072,0.0355,0.0076,82.35,5,1007.34,27.6,37.377,1073033,23:26:33:663
0.018,-0.001,0.0382,82.35,5,1007.39,27.6,35.478,1074033,23:26:34:663
0.028,0.0013,-0.0258,82.35,5,1007.36,27.6,35.804,1075032,23:26:35:662
-0.0293,0.0047,-0.0292,82.35,5,1007.4,27.6,35.919,1076032,23:26:36:662
-0.0285,0.0319,0.0069,82.35,5,1007.39,27.6,34.392,1077032,23:26:37:662
-0.0226,0.0301,-0.0668,82.35,5,1007.39,27.6,37.459,1078033,23:26:38:663
0.0491,0.037,0.0725,82.35,5,1007.38,27.6,40.445,1079032,23:26:39:662
-9.00E-04,-0.0045,0.0618,82.35,5,1007.36,27.6,37.525,1080032,23:26:40:662
0.025,0.0117,0.0612,82.35,5,1007.37,27.6,35.565,1081033,23:26:41:663
-0.0446,-0.0367,-0.0558,82.35,5,1007.37,27.6,34.225,1082033,23:26:42:663
-0.0616,0.01,0.016,82.35,5,1007.37,27.6,34.596,1083032,23:26:43:662
-0.0106,0.0012,-0.0015,82.35,5,1007.38,27.6,38.035,1084032,23:26:44:662
0.0294,0.003,-0.0386,82.35,5,1007.36,27.6,41.327,1085032,23:26:45:662
-0.0461,-0.0538,-0.0406,82.35,5,1007.36,27.6,37.284,1086032,23:26:46:662
-0.0207,-0.0867,-0.1016,82.35,5,1007.37,27.6,34.718,1087033,23:26:47:663
0.0394,0.0242,0.0803,82.35,5,1007.38,27.6,36.043,1088032,23:26:48:662
-0.0361,-0.0011,0.0639,82.35,5,1007.38,27.6,34.567,1089033,23:26:49:663
0.0305,0.024,0.0016,82.35,5,1007.39,27.6,38.744,1090032,23:26:50:662
-0.0037,0.005,0.047,82.35,5,1007.4,27.6,36.094,1091032,23:26:51:662
-0.0639,0.0064,0.0149,82.35,5,1007.4,27.6,34.616,1092032,23:26:52:662
0.0477,0.0063,-0.008,82.35,5,1007.4,27.6,35.918,1093032,23:26:53:662
0.0015,-0.0505,-0.014,82.35,5,1007.4,27.6,35.399,1094032,23:26:54:662
0.0271,-0.0015,0.0578,82.35,5,1007.42,27.6,34.846,1095032,23:26:55:662
0.0194,-0.0272,0.0678,82.35,5,1007.43,27.6,36.556,1096032,23:26:56:662
-0.0676,-0.0361,-0.0292,82.35,5,1007.42,27.6,37.149,1097032,23:26:57:662
-0.0681,-0.042,0.0345,82.35,5,1007.42,27.6,36.54,1098033,23:26:58:663
-0.0396,0.003,-0.0218,82.35,5,1007.42,27.6,36.894,1099032,23:26:59:662
-0.0214,0.0369,0.0541,82.35,5,1007.45,27.6,35.042,1100033,23:27:00:663
0.0055,-0.0127,0.0554,82.35,5,1007.42,27.6,38.801,1101032,23:27:01:662
-0.0086,-0.0265,0.0344,82.35,5,1007.43,27.6,36.247,1102032,23:27:02:662
-0.0305,-0.0067,-0.0471,82.35,5,1007.42,27.6,35.781,1103032,23:27:03:662
0.0289,0.0273,0.0588,82.35,5,1007.48,27.6,36.321,1104032,23:27:04:662
0.0014,0.0192,-0.0413,82.35,5,1007.51,27.6,35.297,1105033,23:27:05:663
-0.0282,-0.0235,0.0284,82.35,5,1007.51,27.6,35.876,1106032,23:27:06:662
0.0359,-0.0046,0.0485,82.35,5,1007.5,27.6,36.713,1107033,23:27:07:663
-0.0701,-0.0706,-0.0507,82.35,5,1007.49,27.6,33.49,1108032,23:27:08:662
-0.0528,-0.0256,-0.006,82.35,5,1007.49,27.6,36.214,1109032,23:27:09:662
0.0138,0.0087,-0.0531,82.35,5,1007.5,27.6,34.851,1110032,23:27:10:662
0.0619,0.0113,0.0177,82.35,5,1007.5,27.6,35.282,1111032,23:27:11:662
0.0293,0.0337,0.0661,82.35,5,1007.51,27.6,35.563,1112032,23:27:12:662
0.0206,-0.0169,0.0074,82.35,5,1007.48,27.6,31.024,1113033,23:27:13:663
-0.0192,-0.0106,-0.0096,82.35,5,1007.49,27.6,35.531,1114032,23:27:14:662
0.0138,0.004,0.0172,82.35,5,1007.5,27.6,32.154,1115033,23:27:15:663
0.0278,0.0395,-0.0268,82.35,5,1007.49,27.6,37.203,1116032,23:27:16:662
0.0466,-0.011,-0.0201,82.35,5,1007.49,27.6,34.691,1117032,23:27:17:662
0.0162,0.0177,0.024,82.35,5,1007.48,27.6,34.848,1118033,23:27:18:663
-0.0081,-0.0271,0.0643,82.35,5,1007.47,27.6,38.405,1119032,23:27:19:662
0.014,-0.0081,0.0299,82.35,5,1007.5,27.6,39.578,1120032,23:27:20:662
0.0156,-0.0911,-0.0119,82.35,5,1007.47,27.6,38.084,1121033,23:27:21:663
-0.001,0.0027,0.0465,82.35,5,1007.47,27.6,37.761,1122032,23:27:22:662
-0.0153,0.0459,0.0664,82.35,5,1007.47,27.6,36.06,1123032,23:27:23:662
0.0333,0.0481,-0.0351,82.35,5,1007.46,27.6,36.799,1124033,23:27:24:663
-0.0476,0.011,-0.0144,82.35,5,1007.45,27.6,36.659,1125032,23:27:25:662
0.0568,0.0405,0.0466,82.35,5,1007.47,27.6,36.029,1126033,23:27:26:663
0.0137,0.0637,0,82.35,5,1007.46,27.6,36.668,1127032,23:27:27:662
0.017,-0.028,-0.0502,82.35,5,1007.44,27.6,36.79,1128033,23:27:28:663
-0.0647,0.0024,-0.0282,82.35,5,1007.47,27.6,37.209,1129032,23:27:29:662
-0.0086,-0.0128,0.0587,82.35,5,1007.47,27.6,36.149,1130032,23:27:30:662
-0.0227,-0.0343,-0.0013,82.35,5,1007.47,27.6,34.155,1131032,23:27:31:662
-0.0583,0.0182,0.0362,82.35,5,1007.46,27.6,36.912,1132032,23:27:32:662
0.0074,-0.0577,-0.06,82.35,5,1007.46,27.6,37.698,1133033,23:27:33:663
0.0045,-0.0609,-0.0223,82.35,5,1007.48,27.6,33.57,1134032,23:27:34:662
-0.013,0.0212,0.0691,82.35,5,1007.45,27.6,39.703,1135032,23:27:35:662
-0.0337,0.0024,0.069,82.35,5,1007.46,27.6,37.258,1136033,23:27:36:663
0.0265,0.0385,0.0687,82.35,5,1007.45,27.6,37.682,1137032,23:27:37:662
0.0382,0.0126,0.014,82.35,5,1007.49,27.6,37.445,1138032,23:27:38:662
0.0094,0.0079,0.0562,82.35,5,1007.45,27.6,33.68,1139032,23:27:39:662
0.047,-0.0202,-0.0651,82.35,5,1007.47,27.6,34.068,1140032,23:27:40:662
-0.0222,0.0086,0.0216,82.35,5,1007.45,27.6,36.212,1141033,23:27:41:663
-0.0438,-0.0072,-0.0161,82.35,5,1007.44,27.6,34.494,1142032,23:27:42:662
-0.014,-0.0156,-0.0993,82.35,5,1007.47,27.6,36.667,1143032,23:27:43:662
0.0468,-0.0069,0.0527,82.35,5,1007.45,27.6,37.674,1144033,23:27:44:663
-0.0169,0.0383,0.0732,82.35,5,1007.82,27.6,38.455,1145032,23:27:45:662
0.0101,-0.0071,-0.0464,82.35,5,1008.45,27.7,41.122,1146032,23:27:46:662
0.0324,0.0074,0.0725,82.35,5,1008.8,27.8,40.916,1147032,23:27:47:662
-0.0162,-0.0271,-0.0522,82.35,5,1008.73,27.9,38.539,1148032,23:27:48:662
0.0556,0.0312,-0.0058,82.35,5,1008.48,28,36.925,1149032,23:27:49:662
0.0165,0.0445,-0.002,82.35,5,1008.44,28,35.741,1150033,23:27:50:663
-0.0047,0.0023,-1.00E-04,82.35,5,1008.32,28.1,38.07,1151032,23:27:51:662
-0.0122,0.0018,0.0015,82.35,5,1008.04,28.2,36.266,1152032,23:27:52:662
-0.0056,-0.0062,-0.0244,82.35,5,1007.76,28.2,35.97,1153032,23:27:53:662
0.0477,-0.0185,-0.0343,82.35,5,1007.55,28.2,37.41,1154032,23:27:54:662
-0.0018,0.0175,-0.0857,82.35,5,1007.42,28.2,36.293,1155032,23:27:55:662
-0.0183,-0.0509,-0.0494,82.35,5,1007.31,28.2,37.521,1156032,23:27:56:662
-0.0604,-0.037,-0.0445,82.35,5,1007.24,28.2,36.221,1157033,23:27:57:663
-0.0509,0.0277,0.0214,82.35,5,1007.21,28.2,36.019,1158032,23:27:58:662
-0.007,0.0174,0.026,82.35,5,1007.18,28.1,36.797,1159032,23:27:59:662
-0.0411,0.0204,0.0238,82.35,5,1007.14,28.1,36.638,1160032,23:28:00:662
-0.0037,0.0037,6.00E-04,82.35,5,1007.17,28.1,38.733,1161033,23:28:01:663
0.0084,0.0579,-4.00E-04,82.35,5,1007.16,28.1,36.844,1162032,23:28:02:662
-0.0165,-0.0846,-0.008,82.35,5,1007.16,28,35.481,1163032,23:28:03:662
0.0509,-0.0127,0.015,82.35,5,1007.14,28,35.639,1164032,23:28:04:662
0.0388,-0.0097,0.0154,82.35,5,1007.18,28,36.826,1165032,23:28:05:662
0.0331,0.0217,-0.0662,82.35,5,1007.2,28,34.036,1166033,23:28:06:663
-0.0073,-0.0307,-0.0251,82.35,5,1007.22,28,36.248,1167032,23:28:07:662
0.0333,0.0444,0.0531,82.35,5,1007.21,28,36.21,1168032,23:28:08:662
0.0232,-0.0053,0.0644,82.35,5,1007.24,28,34.777,1169032,23:28:09:662
0.0157,-0.0016,0.0199,82.35,5,1007.23,27.9,35.99,1170033,23:28:10:663
0.0165,-0.0066,0.0352,82.35,5,1007.25,27.9,36.085,1171032,23:28:11:662
-0.0193,-0.0105,0.0021,82.35,5,1007.26,27.9,34.696,1172032,23:28:12:662
-0.0203,-0.047,-0.0256,82.35,5,1007.26,27.9,38.026,1173032,23:28:13:662
-0.0038,0.0247,-0.0201,82.35,5,1007.28,27.9,34.306,1174032,23:28:14:662
-0.0054,0.0012,-0.0384,82.35,5,1007.3,27.9,35.516,1175032,23:28:15:662
0.003,0.0119,0.0809,82.35,5,1007.33,27.9,37.787,1176032,23:28:16:662
0.0329,0.0196,0.0377,82.35,5,1007.48,27.9,35.014,1177032,23:28:17:662
-0.0414,0.0601,0.0612,82.35,5,1007.66,27.9,35.603,1178032,23:28:18:662
-0.0043,-0.0275,-0.0358,82.35,5,1007.59,27.9,36.317,1179033,23:28:19:663
-0.0347,0.0239,-0.1055,82.35,5,1007.48,27.9,35.093,1180032,23:28:20:662
-0.0244,0.0106,0.0223,82.35,5,1007.5,27.9,37.425,1181032,23:28:21:662
0.0506,0.065,-0.0071,82.35,5,1007.45,27.9,34.987,1182032,23:28:22:662
-0.0299,-0.0452,0.0168,82.35,5,1007.43,27.9,35.126,1183032,23:28:23:662
0.0372,-0.0123,-0.0479,82.35,5,1007.38,27.9,37.814,1184033,23:28:24:663
-0.0128,0.0149,-0.0433,82.35,5,1007.37,27.9,47.775,1185032,23:28:25:662
-0.0169,-0.0148,0.0206,82.35,5,1007.35,27.9,36.737,1186033,23:28:26:663
0.0288,0.0412,0.0214,82.35,5,1007.54,27.9,35.069,1187032,23:28:27:662
0.0248,2.00E-04,0.0149,82.35,5,1007.55,27.9,35.067,1188032,23:28:28:662
0.0328,0.0079,0.0114,82.35,5,1007.48,27.9,36.34,1189032,23:28:29:662
-0.0125,0.0034,0.0712,82.35,5,1007.44,27.9,35.381,1190033,23:28:30:663
-0.0074,0.0026,-0.0907,82.35,5,1007.38,27.9,34.577,1191032,23:28:31:662
-0.0062,-0.0059,-0.0038,82.35,5,1007.38,27.9,36.519,1192032,23:28:32:662
0.0632,-0.0525,0.0444,82.35,5,1007.41,27.9,35.638,1193032,23:28:33:662
-0.0069,0.0085,0.0509,82.35,5,1007.39,27.9,36.011,1194032,23:28:34:662
0.0248,0.0658,-6.00E-04,82.35,5,1007.39,27.9,36.12,1195033,23:28:35:663
0.0647,-0.03,-0.0804,82.35,5,1007.38,27.9,34.326,1196033,23:28:36:663
0.0046,0.0027,0.0011,82.35,5,1007.38,27.9,36.26,1197032,23:28:37:662
0.0699,-0.0046,0.0495,82.35,5,1007.38,27.9,36.827,1198032,23:28:38:662
-0.0079,0.0233,0.0177,82.35,5,1007.38,27.9,36.352,1199032,23:28:39:662
0.0641,-0.0165,-0.0376,82.35,5,1007.38,27.9,34.581,1200033,23:28:40:663
0.0121,-0.0155,0.0224,82.35,5,1007.4,27.8,37.192,1201032,23:28:41:662
0.0038,-0.0139,0.004,82.35,5,1007.41,27.8,34.626,1202033,23:28:42:663
-0.0206,0.0321,-0.0199,82.35,5,1007.53,27.8,36.373,1203032,23:28:43:662
0.0352,0.0321,-0.0771,82.35,5,1007.64,27.8,36.34,1204033,23:28:44:663
-0.0184,0.016,0.0027,82.35,5,1007.6,27.9,35.928,1205032,23:28:45:662
0.038,-0.0173,-0.0502,82.35,5,1007.52,27.9,37.093,1206033,23:28:46:663
-0.0083,-0.0168,-0.0162,82.35,5,1007.66,27.9,37.612,1207032,23:28:47:662
0.0137,0.0023,0.0624,82.35,5,1007.63,27.9,37.952,1208032,23:28:48:662
0.0185,0.0045,0.0608,82.35,5,1007.58,27.9,36.323,1209032,23:28:49:662
0.0415,-0.0108,0.0206,82.35,5,1007.52,27.9,36.864,1210032,23:28:50:662
-0.0044,0.0125,0.0327,82.35,5,1007.45,27.9,34.674,1211033,23:28:51:663
-0.0138,2.00E-04,0.0058,82.35,5,1007.46,27.9,36.472,1212032,23:28:52:662
-0.0058,-0.0174,-0.0462,82.35,5,1007.45,27.9,36.394,1213033,23:28:53:663
-0.0024,-0.0293,-0.0167,82.35,5,1007.41,27.9,35.75,1214032,23:28:54:662
0.0264,0.0235,0.0984,82.35,5,1007.39,27.9,35.769,1215032,23:28:55:662
0.0639,-0.0142,0.0065,82.35,5,1007.36,27.9,34.798,1216033,23:28:56:663
-0.0251,0.0203,-0.1122,82.35,5,1007.37,27.9,35.941,1217032,23:28:57:662
-0.0602,-0.0219,-0.063,82.35,5,1007.35,27.9,37.077,1218032,23:28:58:662
-0.0589,0.0211,0.0431,82.35,5,1007.38,27.9,33.444,1219032,23:28:59:662
-0.0341,0.0385,0.0377,82.35,5,1007.39,27.9,35.499,1220032,23:29:00:662
-0.0399,-0.0648,-5.00E-04,82.35,5,1007.41,27.9,36.505,1221032,23:29:01:662
-0.0372,-0.0439,0.01,82.35,5,1007.4,27.9,32.816,1222032,23:29:02:662
0.0112,0.0379,0.0147,82.35,5,1007.39,27.9,34.371,1223032,23:29:03:662
0.035,0.0064,-0.0251,82.35,5,1007.4,27.9,34.53,1224032,23:29:04:662
0.0117,-0.0346,0.0273,82.35,5,1007.4,27.9,33.391,1225033,23:29:05:663
-8.00E-04,0.0564,0.0105,82.35,5,1007.4,27.8,36.402,1226032,23:29:06:662
-0.0456,-0.015,0.0692,82.35,5,1007.42,27.8,34.022,1227032,23:29:07:662
0.0082,0.0212,-0.0591,82.35,5,1007.42,27.8,33.33,1228033,23:29:08:663
0.0144,-0.0026,0.0125,82.35,5,1007.44,27.8,35.884,1229032,23:29:09:662
-0.0312,0.008,-0.0072,82.35,5,1007.65,27.8,35.64,1230032,23:29:10:662
0.0028,-0.0321,-0.0433,82.35,5,1007.64,27.9,32.63,1231032,23:29:11:662
-0.0136,0.0079,0.0706,82.35,5,1007.61,27.9,36.15,1232032,23:29:12:662
-0.0342,0.0139,0.0654,82.35,5,1007.55,27.9,35.724,1233032,23:29:13:662
0.0198,-0.0304,0.0172,82.35,5,1007.54,27.9,35.056,1234032,23:29:14:662
0.0201,-0.0218,-0.0472,82.35,5,1007.52,27.9,34.017,1235033,23:29:15:663
0.0656,-0.0027,0.0103,82.35,5,1007.47,27.9,33.047,1236032,23:29:16:662
-0.0362,-0.0132,0.0139,82.35,5,1007.45,27.9,33.395,1237033,23:29:17:663
0.0072,-0.0209,-0.0213,82.35,5,1007.42,27.9,36.423,1238032,23:29:18:662
-0.0584,-0.0176,-0.0218,82.35,5,1007.41,27.9,34.115,1239033,23:29:19:663
0.0453,0.0343,0.0463,82.35,5,1007.44,27.9,34.689,1240032,23:29:20:662
0.0173,0.0404,-0.0013,82.35,5,1007.41,27.9,36.425,1241033,23:29:21:663
0.0189,0.0026,-0.0138,82.35,5,1007.42,27.9,34.864,1242032,23:29:22:662
-0.0017,-0.0015,-0.0149,82.35,5,1007.43,27.9,35.684,1243032,23:29:23:662
-0.0131,0.0152,-0.0461,82.35,5,1007.42,27.9,37.32,1244033,23:29:24:663
-0.0382,-0.0183,0.0573,82.35,5,1007.44,27.9,34.073,1245032,23:29:25:662
0.0221,0.008,0.0218,82.35,5,1007.42,27.9,35.713,1246032,23:29:26:662
0.0503,0.0147,0.023,82.35,5,1007.47,27.9,35.295,1247033,23:29:27:663
0.019,-0.0476,-0.0685,82.35,5,1007.44,27.9,34.916,1248032,23:29:28:662
0.0219,-7.00E-04,0.0513,82.35,5,1007.45,27.8,36.991,1249032,23:29:29:662
-0.0282,0.0173,-0.0281,82.35,5,1007.48,27.9,36.497,1250033,23:29:30:663
0.0504,0.0052,0.095,82.35,5,1007.5,27.8,34.067,1251032,23:29:31:662
-0.0295,0.0032,0.0113,82.35,5,1007.49,27.8,36.554,1252033,23:29:32:663
-0.049,-0.0289,-0.0426,82.35,5,1007.49,27.8,36.076,1253032,23:29:33:662
0.0209,0.0104,0.0514,82.35,5,1007.49,27.8,35.399,1254033,23:29:34:663
-0.0119,1.00E-04,0.0221,82.35,5,1007.5,27.8,35.598,1255032,23:29:35:662
0.0429,0.0182,0.0074,82.35,5,1007.48,27.8,36.552,1256032,23:29:36:662
-0.0364,-0.0177,-0.0296,82.35,5,1007.53,27.8,35.478,1257033,23:29:37:663
0.0132,-0.0061,-0.0037,82.35,5,1007.52,27.8,35.429,1258032,23:29:38:662
-0.0021,-0.0173,-0.0213,82.35,5,1007.5,27.8,36.655,1259032,23:29:39:662
0.0212,-0.0322,0.0456,82.35,5,1007.5,27.8,34.148,1260032,23:29:40:662
-0.0403,0.0078,0.0016,82.35,5,1007.52,27.8,34.773,1261032,23:29:41:662
-0.0316,0.0077,0.063,82.35,5,1007.5,27.8,31.192,1262032,23:29:42:662
-0.0735,0.0147,-0.0076,82.35,5,1007.47,27.8,34.322,1263032,23:29:43:662
-0.0168,-0.0439,-0.0491,82.35,5,1007.43,27.8,35.111,1264032,23:29:44:662
0.0128,0.0103,-0.0511,82.35,5,1007.42,27.8,35.12,1265032,23:29:45:662
-0.0048,-0.0079,-0.0088,82.35,5,1007.41,27.8,32.013,1266033,23:29:46:663
0.0347,-0.031,-0.0371,82.35,5,1007.4,27.8,36.632,1267032,23:29:47:662
0.0265,0.0247,0.0548,82.35,5,1007.4,27.8,36.117,1268032,23:29:48:662
0.0097,-0.0263,-0.0011,82.35,5,1007.4,27.8,35.966,1269032,23:29:49:662
0.0071,0.0346,-5.00E-04,82.35,5,1007.38,27.8,36.882,1270032,23:29:50:662
0.0528,-0.0303,0.0469,82.35,5,1007.36,27.8,37.031,1271033,23:29:51:663
0.0492,0.034,0.06,82.35,5,1007.38,27.8,36.804,1272032,23:29:52:662
-0.0061,0.0031,0.0167,82.35,5,1007.38,27.8,37.222,1273032,23:29:53:662
0.0183,-0.0213,0.0067,82.35,5,1007.38,27.8,35.907,1274033,23:29:54:663
0.012,-0.0132,0.0824,82.35,5,1007.4,27.8,36.274,1275032,23:29:55:662
0.0079,-0.0174,-0.0267,82.35,5,1007.42,27.8,36.795,1276032,23:29:56:662
0.0222,0.0029,-0.0284,82.35,5,1007.4,27.8,35.318,1277032,23:29:57:662
0.0141,-0.0275,0.0777,82.35,5,1007.4,27.8,34.681,1278032,23:29:58:662
-0.0036,-0.0077,0.008,82.35,5,1007.39,27.8,35.306,1279032,23:29:59:662
-0.0012,0.0291,-0.0193,82.35,5,1007.5,27.8,34.503,1280032,23:30:00:662
0.0204,-0.0121,0.0367,82.35,5,1007.48,27.8,34.082,1281032,23:30:01:662
0.0086,0.033,0.0372,82.35,5,1007.48,27.8,35.811,1282032,23:30:02:662
0.0716,-0.0512,-0.0115,82.35,5,1007.45,27.8,33.557,1283033,23:30:03:663
0.0235,0.0067,0.0515,82.35,5,1007.47,27.8,35.996,1284032,23:30:04:662
-0.032,-0.0096,0.0137,82.35,5,1007.44,27.8,33.967,1285033,23:30:05:663
-0.0063,0.0305,0.0559,82.35,5,1007.44,27.8,33.549,1286032,23:30:06:662
-0.0396,-0.0113,-0.0018,82.35,5,1007.45,27.8,35.315,1287032,23:30:07:662
0.0128,-0.0068,-0.0216,82.35,5,1007.42,27.8,32.994,1288032,23:30:08:662
-0.0104,0.0516,0.026,82.35,5,1007.42,27.8,32.95,1289032,23:30:09:662
0.0221,0.0089,-0.0427,82.35,5,1007.46,27.8,34.678,1290032,23:30:10:662
-0.0033,0.0138,-0.014,82.35,5,1007.45,27.8,35.646,1291032,23:30:11:662
0.035,0.0058,0.0096,82.35,5,1007.44,27.8,35.465,1292032,23:30:12:662
-0.0069,4.00E-04,0.0171,82.35,5,1007.42,27.8,34.827,1293033,23:30:13:663
-0.0431,0.0355,-0.0383,82.35,5,1007.4,27.8,34.773,1294032,23:30:14:662
0.0217,-0.0086,0.0617,82.35,5,1007.45,27.8,35.131,1295032,23:30:15:662
0.0103,0.0105,0.0269,82.35,5,1007.45,27.8,36.241,1296033,23:30:16:663
0.0114,-0.011,0.0538,82.35,5,1007.41,27.8,33.636,1297032,23:30:17:662
-0.059,0.0012,0.064,82.35,5,1007.4,27.8,35.028,1298032,23:30:18:662
0.0266,0.0119,0.0299,82.35,5,1007.39,27.8,36.63,1299033,23:30:19:663
0.0062,0.0118,0.0126,82.35,5,1007.37,27.8,33.864,1300032,23:30:20:662
0.0222,0.0267,-0.0646,82.35,5,1007.4,27.8,33.811,1301032,23:30:21:662
0.0037,-0.015,0.0523,82.35,5,1007.38,27.8,35.34,1302033,23:30:22:663
-0.0385,0.0085,0.0037,82.35,5,1007.39,27.8,36.222,1303032,23:30:23:662
0.036,-0.0161,-0.0287,82.35,5,1007.4,27.8,32.998,1304032,23:30:24:662
0.0534,-0.0354,-0.0352,82.35,5,1007.38,27.8,33.943,1305032,23:30:25:662
0.0389,0.0245,0.1093,82.35,5,1007.4,27.8,35.098,1306032,23:30:26:662
-0.0019,-8.00E-04,-0.02,82.35,5,1007.4,27.8,34.253,1307032,23:30:27:662
-0.0125,0.0296,0.0261,82.35,5,1007.4,27.8,35.04,1308033,23:30:28:663
-0.006,-0.0195,0.0616,82.35,5,1007.41,27.8,32.127,1309032,23:30:29:662
-0.0066,0.0054,-0.0389,82.35,5,1007.41,27.8,34.909,1310032,23:30:30:662
-0.0124,0.0092,-0.0822,82.35,5,1007.42,27.8,35.984,1311032,23:30:31:662
-0.0406,0.0286,0.0703,82.35,5,1007.41,27.8,32.928,1312032,23:30:32:662
0.0314,0.0027,0.0207,82.35,5,1007.43,27.8,35.49,1313032,23:30:33:662
-0.0252,-0.001,0.048,82.35,5,1007.42,27.8,35.221,1314032,23:30:34:662
-0.0348,-0.0218,-0.0324,82.35,5,1007.42,27.8,35.339,1315033,23:30:35:663
0.0177,-0.0512,-0.0359,82.35,5,1007.39,27.8,35.2,1316032,23:30:36:662
-0.0264,0.0316,-0.0021,82.35,5,1007.4,27.8,35.515,1317032,23:30:37:662
-0.0125,0.0219,-0.0057,82.35,5,1007.41,27.8,34.838,1318032,23:30:38:662
-0.0272,-0.0065,-0.0043,82.35,5,1007.43,27.8,35.137,1319032,23:30:39:662
0.0028,0.0136,0.0153,82.35,5,1007.41,27.8,36.927,1320032,23:30:40:662
0.0283,-0.0541,0.0115,82.35,5,1007.4,27.8,39.531,1321032,23:30:41:662
-0.0056,0.0277,-0.0084,82.35,5,1007.41,27.8,41.799,1322033,23:30:42:663
-0.0021,-0.0111,8.00E-04,82.35,5,1007.39,27.8,38.616,1323032,23:30:43:662
-0.0263,0.0509,-0.0476,82.35,5,1007.4,27.8,39.222,1324032,23:30:44:662
-0.0308,-0.0023,0.024,82.35,5,1007.41,27.8,39.909,1325032,23:30:45:662
0.014,0.0227,0.0139,82.35,5,1007.37,27.8,41.302,1326032,23:30:46:662
8.00E-04,0.0041,0.0866,82.35,5,1007.38,27.8,38.574,1327032,23:30:47:662
0.0166,0.0043,-0.0059,82.35,5,1007.39,27.8,39.282,1328032,23:30:48:662
-0.0506,-0.005,0.0816,82.35,5,1007.38,27.8,38.573,1329032,23:30:49:662
0.0091,-0.0367,-0.0236,82.35,5,1007.38,27.8,37.424,1330033,23:30:50:663
-0.0482,-0.0398,0.0228,82.35,5,1007.39,27.8,37.113,1331032,23:30:51:662
-0.0179,0.0239,-0.0991,82.35,5,1007.37,27.8,35.122,1332032,23:30:52:662
0.0143,-0.0204,-0.0049,82.35,5,1007.4,27.8,35.033,1333033,23:30:53:663
0.0499,0.0234,-0.0186,82.35,5,1007.39,27.8,35.531,1334032,23:30:54:662
-0.038,0.047,0.0487,82.35,5,1007.39,27.8,33.933,1335032,23:30:55:662
0.0073,-1.00E-04,0.0557,82.35,5,1007.38,27.8,36.455,1336032,23:30:56:662
0.0255,0.0207,-0.0387,82.35,5,1007.37,27.8,35.529,1337032,23:30:57:662
-0.0195,0.0287,0.0131,82.35,5,1007.36,27.8,36.069,1338032,23:30:58:662
0.0539,0.0115,0.0766,82.35,5,1007.43,27.8,37.788,1339032,23:30:59:662
0.0567,-0.0446,0.0268,82.35,5,1007.42,27.8,35.703,1340032,23:31:00:662
0.0463,0.0102,0.0325,82.35,5,1007.4,27.8,34.907,1341032,23:31:01:662
0.0534,-0.029,0.0186,82.35,5,1007.37,27.8,37.258,1342032,23:31:02:662
0.0205,0.0067,-0.1057,82.35,5,1007.39,27.8,37.639,1343033,23:31:03:663
0.0588,0.0057,-0.0095,82.35,5,1007.37,27.8,34.974,1344032,23:31:04:662
-0.0586,0.0042,-0.0587,82.35,5,1007.39,27.8,36.826,1345032,23:31:05:662
0.0157,-0.0178,-0.0715,82.35,5,1007.39,27.8,37.369,1346033,23:31:06:663
-0.0353,0.0172,-0.0342,82.35,5,1007.35,27.8,35.395,1347033,23:31:07:663
0.0316,-0.0041,0.0198,82.35,5,1007.37,27.8,37.519,1348032,23:31:08:662
0.054,0.0498,0.0037,82.35,5,1007.37,27.8,36.532,1349032,23:31:09:662
-0.0245,0.013,0.0041,82.35,5,1007.37,27.8,36.78,1350032,23:31:10:662
-0.032,0.0025,-0.0123,82.35,5,1007.35,27.8,36.833,1351032,23:31:11:662
-0.0293,0.0397,-0.0101,82.35,5,1007.37,27.8,36.621,1352032,23:31:12:662
0.022,-0.0167,-0.0117,82.35,5,1007.36,27.8,36.347,1353032,23:31:13:662
0.0327,-0.0014,-0.0344,82.35,5,1007.37,27.8,38.814,1354032,23:31:14:662
-0.066,-0.0052,-6.00E-04,82.35,5,1007.39,27.8,36.527,1355032,23:31:15:662
-0.0489,0.0107,-0.0312,82.35,5,1007.39,27.8,35.8,1356032,23:31:16:662
-3.00E-04,0.0095,-0.01,82.35,5,1007.39,27.8,37.927,1357032,23:31:17:662
-0.0825,0.0131,0.0579,82.35,5,1007.4,27.8,37.796,1358032,23:31:18:662
0.0343,0.0125,0.0321,82.35,5,1007.54,27.8,35.714,1359033,23:31:19:663
-0.0271,-0.0377,-0.022,82.35,5,1007.49,27.8,37.724,1360032,23:31:20:662
0.056,0.0328,-0.0625,82.35,5,1007.45,27.8,37.46,1361033,23:31:21:663
0.0141,-9.00E-04,0.0996,82.35,5,1007.42,27.8,36.787,1362032,23:31:22:662
0.0061,-0.0029,0.0244,82.35,5,1007.41,27.8,37.844,1363032,23:31:23:662
-0.0064,0.0607,0.0139,82.35,5,1007.43,27.8,36.874,1364033,23:31:24:663
0.074,-0.0044,-0.0345,82.35,5,1007.4,27.8,36.909,1365032,23:31:25:662
0.0358,0.0304,-0.0123,82.35,5,1007.43,27.8,39.312,1366032,23:31:26:662
-0.0382,-0.0598,-0.0574,82.35,5,1007.39,27.8,38.842,1367033,23:31:27:663
-0.0301,0.0172,0.0595,82.35,5,1007.41,27.8,35.016,1368032,23:31:28:662
0.0066,0.0245,-0.1076,82.35,5,1007.38,27.8,36.561,1369032,23:31:29:662
-0.0591,0.0411,0.0617,82.35,5,1007.4,27.8,36.081,1370033,23:31:30:663
-0.0104,-0.0272,0.0011,82.35,5,1007.39,27.8,34.826,1371032,23:31:31:662
-0.0231,0.0125,0.0486,82.35,5,1007.4,27.8,36.061,1372033,23:31:32:663
-0.0232,-0.0043,-0.0157,82.35,5,1007.4,27.8,36.266,1373032,23:31:33:662
-0.0572,0.0011,-0.0313,82.35,5,1007.4,27.8,33.352,1374032,23:31:34:662
0.0054,0.0159,-0.0337,82.35,5,1007.42,27.8,36.142,1375032,23:31:35:662
0.0302,0.0282,-0.0543,82.35,5,1007.42,27.8,35.232,1376033,23:31:36:663
-0.0058,-5.00E-04,0.0367,82.35,5,1007.4,27.8,33.444,1377033,23:31:37:663
-0.0168,-0.0184,-0.0167,82.35,5,1007.37,27.8,34.38,1378032,23:31:38:662
-0.0222,0.0265,0.0316,82.35,5,1007.39,27.8,34.05,1379032,23:31:39:662
-0.0053,0.0358,0.0457,82.35,5,1007.41,27.8,33.995,1380033,23:31:40:663
0.0457,0.0289,-0.0179,82.35,5,1007.36,27.8,35.744,1381033,23:31:41:663
-0.0302,-0.0249,-0.0781,82.35,5,1007.37,27.8,35.423,1382032,23:31:42:662
0.0083,0.0049,-0.0189,82.35,5,1007.38,27.8,34.006,1383032,23:31:43:662
0.0441,-0.0198,-0.0435,82.35,5,1007.4,27.8,36.926,1384033,23:31:44:663
-0.0417,-0.0133,-7.00E-04,82.35,5,1007.41,27.8,33.871,1385032,23:31:45:662
0.0212,-0.0142,-0.0251,82.35,5,1007.4,27.8,34.181,1386033,23:31:46:663
-0.0831,0.0328,-0.0053,82.35,5,1007.38,27.8,37.408,1387032,23:31:47:662
0.0173,-9.00E-04,-0.0256,82.35,5,1007.49,27.8,36.095,1388032,23:31:48:662
-0.017,0.0194,-0.0284,82.35,5,1007.49,27.8,33.98,1389032,23:31:49:662
-0.002,-0.0309,-0.0614,82.35,5,1007.45,27.8,36.792,1390033,23:31:50:663
0.0032,0.0257,-0.0178,82.35,5,1007.46,27.8,37.455,1391032,23:31:51:662
8.00E-04,0.0047,0.0111,82.35,5,1007.44,27.8,36.358,1392032,23:31:52:662
0.0106,-0.0182,0.0142,82.35,5,1007.44,27.8,35.82,1393032,23:31:53:662
0.014,0.0414,0.0065,82.35,5,1007.44,27.8,36.158,1394032,23:31:54:662
-0.0657,-0.0229,0.0684,82.35,5,1007.42,27.8,35.466,1395033,23:31:55:663
-0.017,0.0326,-0.006,82.35,5,1007.43,27.8,35.961,1396032,23:31:56:662
0.0511,-0.0067,-0.0141,82.35,5,1007.42,27.8,36.53,1397032,23:31:57:662
-0.0412,-0.0058,-0.0649,82.35,5,1007.42,27.8,35.424,1398033,23:31:58:663
0.0501,-0.0122,-0.0125,82.35,5,1007.41,27.8,36.976,1399032,23:31:59:662
-0.0046,0.0227,0.0157,82.35,5,1007.4,27.8,36.554,1400032,23:32:00:662
-0.0495,0.0341,1.00E-04,82.35,5,1007.41,27.8,36.616,1401032,23:32:01:662
-0.0521,0.0508,0.0436,82.35,5,1007.41,27.8,38.345,1402033,23:32:02:663
-0.0088,0.0098,0.0114,82.35,5,1007.4,27.8,37.911,1403033,23:32:03:663
-0.004,0.0617,0.0569,82.35,5,1007.38,27.8,38.114,1404032,23:32:04:662
-0.0327,0.0021,0.0304,82.35,5,1007.4,27.8,39.475,1405032,23:32:05:662
0.0054,-0.0173,0.0627,82.35,5,1007.38,27.8,37.707,1406032,23:32:06:662
-0.0271,0.0294,-0.059,82.35,5,1007.38,27.8,36.412,1407033,23:32:07:663
0.0475,0.0142,0.0847,82.35,5,1007.44,27.8,37.043,1408032,23:32:08:662
0.0136,-0.0192,0.0017,82.35,5,1007.41,27.8,37.282,1409033,23:32:09:663
-0.0113,-0.0282,-0.0611,82.35,5,1007.4,27.8,35.964,1410032,23:32:10:662
0.001,-0.0399,0.0711,82.35,5,1007.39,27.8,36.122,1411032,23:32:11:662
0.0113,-0.0029,-0.0707,82.35,5,1007.38,27.8,37.406,1412033,23:32:12:663
0.0074,0.0277,-0.0133,82.35,5,1007.37,27.8,36.678,1413032,23:32:13:662
0.0311,-7.00E-04,0.0421,82.35,5,1007.38,27.8,36.377,1414033,23:32:14:663
0.0178,0.0212,-0.0153,82.35,5,1007.4,27.8,37.669,1415032,23:32:15:662
-0.0487,0.0133,0.06,82.35,5,1007.39,27.8,37.478,1416032,23:32:16:662
0.0412,-0.0159,0.0357,82.35,5,1007.37,27.8,38.256,1417033,23:32:17:663
0.0039,0.0111,-0.0301,82.35,5,1007.39,27.8,37.018,1418032,23:32:18:662
0.0641,-0.0174,0.0309,82.35,5,1007.69,27.8,38.003,1419033,23:32:19:663
-0.0225,-1.00E-04,-0.0285,82.35,5,1007.79,27.9,36.634,1420032,23:32:20:662
-0.0048,-0.0593,-0.0942,82.35,5,1007.67,27.9,36.652,1421033,23:32:21:663
0.0174,0.0208,-0.0211,82.35,5,1007.58,27.9,36.711,1422032,23:32:22:662
-0.0119,-0.0349,0.0625,82.35,5,1007.51,27.9,36.684,1423032,23:32:23:662
0.018,0.0144,-0.0211,82.35,5,1007.46,27.9,37.073,1424033,23:32:24:663
0.0197,0.0345,-0.0088,82.35,5,1007.42,27.9,36.331,1425032,23:32:25:662
0.0088,0.039,0.0286,82.35,5,1007.44,27.9,36.057,1426033,23:32:26:663
0.0028,0.022,0.0029,82.35,5,1007.39,27.9,37.158,1427032,23:32:27:662
0.0034,-2.00E-04,-0.0723,82.35,5,1007.37,27.9,37.978,1428032,23:32:28:662
0.0344,-0.0112,0.0155,82.35,5,1007.38,27.9,36.519,1429033,23:32:29:663
-0.0239,0.0325,-0.0035,82.35,5,1007.37,27.9,37.692,1430032,23:32:30:662
0.0067,-0.0505,-0.0554,82.35,5,1007.38,27.9,38.635,1431033,23:32:31:663
-0.0137,0.0231,-0.0707,82.35,5,1007.36,27.9,36.068,1432032,23:32:32:662
-0.0034,-0.0132,-0.0576,82.35,5,1007.32,27.9,36.476,1433032,23:32:33:662
0.0053,-0.0208,0.0119,82.35,5,1007.31,27.9,38.316,1434032,23:32:34:662
-0.015,0.0189,0.0046,82.35,5,1007.3,27.9,36.7,1435032,23:32:35:662
0.0093,0.009,-0.0782,82.35,5,1007.32,27.9,36.054,1436032,23:32:36:662
-0.0837,-0.015,-0.0803,82.35,5,1007.33,27.9,37.739,1437032,23:32:37:662
-0.0624,0.0246,0.0448,82.35,5,1007.31,27.9,37.349,1438032,23:32:38:662
-0.0314,-0.0121,0.0282,82.35,5,1007.3,27.9,36.882,1439032,23:32:39:662
0.0062,-0.0313,-0.0605,82.35,5,1007.31,27.9,38.544,1440033,23:32:40:663
-0.0271,-0.0028,-0.0372,82.35,5,1007.27,27.9,36.804,1441032,23:32:41:662
0.0094,0.0408,-0.0361,82.35,5,1007.3,27.9,37.056,1442032,23:32:42:662
-0.0532,-0.078,-0.0538,82.35,5,1007.28,27.9,37.569,1443033,23:32:43:663
0.0193,0.0129,0.0653,82.35,5,1007.29,27.9,35.634,1444032,23:32:44:662
-0.0021,-0.0111,-0.001,82.35,5,1007.31,27.9,37.622,1445033,23:32:45:663
-0.051,6.00E-04,0.0477,82.35,5,1007.29,27.9,37.536,1446032,23:32:46:662
0.0555,-0.0459,0.0505,82.35,5,1007.34,27.9,36.598,1447033,23:32:47:663
-0.01,0.0305,-0.0089,82.35,5,1007.34,27.9,35.641,1448032,23:32:48:662
-0.0129,0.041,0.0113,82.35,5,1007.32,27.9,39.876,1449032,23:32:49:662
-0.0049,-0.0167,0.0039,82.35,5,1007.35,27.9,36.86,1450033,23:32:50:663
-0.0277,0.0399,0.0273,82.35,5,1007.38,27.9,35.715,1451032,23:32:51:662
0.0483,0.0544,-0.012,82.35,5,1007.38,27.9,37.312,1452033,23:32:52:663
0.0076,-0.056,-0.0151,82.35,5,1007.37,27.9,37.342,1453032,23:32:53:662
0.0174,-0.0033,-0.0429,82.35,5,1007.39,27.9,35.55,1454032,23:32:54:662
0.0626,0.005,0.0027,82.35,5,1007.34,27.9,38.935,1455032,23:32:55:662
0.0048,0.0164,-0.0513,82.35,5,1007.36,27.9,38.359,1456032,23:32:56:662
-0.0152,0.0382,0.0311,82.35,5,1007.34,27.9,36.386,1457033,23:32:57:663
-0.0117,0.0226,-0.0522,82.35,5,1007.33,27.9,36.93,1458032,23:32:58:662
0.0239,0.0027,0.027,82.35,5,1007.35,27.9,35.701,1459033,23:32:59:663
0.0281,0.0639,0.0104,82.35,5,1007.32,27.9,34.766,1460032,23:33:00:662
0.0327,-0.0191,0.0152,82.35,5,1007.32,27.9,38.135,1461032,23:33:01:662
0.0094,-0.0112,0.031,82.35,5,1007.3,27.9,37.006,1462033,23:33:02:663
-3.00E-04,-0.0224,-0.0621,82.35,5,1007.35,27.9,34.986,1463032,23:33:03:662
-0.004,0.0201,0.0157,82.35,5,1007.37,27.9,33.699,1464033,23:33:04:663
-0.0021,-0.01,0.0219,82.35,5,1007.4,27.9,36.187,1465032,23:33:05:662
-0.0447,0.0089,-0.0367,82.35,5,1007.41,27.9,33.428,1466032,23:33:06:662
0.0041,0.0211,-0.02,82.35,5,1007.39,27.9,35.788,1467032,23:33:07:662
-0.0057,-0.0139,-0.0159,82.35,5,1007.42,27.9,35.562,1468032,23:33:08:662
-0.0526,-0.0015,-0.0271,82.35,5,1007.49,27.9,36.074,1469032,23:33:09:662
0.0238,-0.0786,0.0075,82.35,5,1007.69,27.9,35.977,1470032,23:33:10:662
0.0105,0.0232,0.0042,82.35,5,1007.62,27.9,37.417,1471032,23:33:11:662
-0.0218,-0.0034,0.0124,82.35,5,1007.55,27.9,36.592,1472033,23:33:12:663
0.0376,-0.0131,0.0101,82.35,5,1007.47,27.9,36.207,1473032,23:33:13:662
-0.0241,0.0123,0.0016,82.35,5,1007.4,28,37.284,1474032,23:33:14:662
-0.0339,0.0168,0.015,82.35,5,1007.37,27.9,37.714,1475033,23:33:15:663
0.0081,-0.0026,-0.0513,82.35,5,1007.37,27.9,36.533,1476032,23:33:16:662
-0.0516,-0.0226,-0.0701,82.35,5,1007.36,27.9,37.097,1477033,23:33:17:663
0.0062,-0.0077,-0.0719,82.35,5,1007.55,27.9,37.663,1478032,23:33:18:662
-0.0098,-0.041,-0.017,82.35,5,1007.5,28,36.092,1479033,23:33:19:663
0.0444,0.019,0.0044,82.35,5,1007.41,28,37.854,1480033,23:33:20:663
0.0264,-0.0733,-0.009,82.35,5,1007.38,28,38.939,1481032,23:33:21:662
0.0323,0.0048,-0.0257,82.35,5,1007.34,28,36.916,1482032,23:33:22:662
0.003,-0.0384,0.0353,82.35,5,1007.34,28,37.071,1483033,23:33:23:663
-0.0233,0.0164,0.008,82.35,5,1007.31,28,36.907,1484032,23:33:24:662
-0.0371,0.0479,0.0575,82.35,5,1007.3,28,35.173,1485032,23:33:25:662
0.0556,-0.0419,0.0275,82.35,5,1007.31,28,35.808,1486033,23:33:26:663
4.00E-04,-0.0161,8.00E-04,82.35,5,1007.28,28,35.686,1487032,23:33:27:662
0.0497,0.0137,-0.0475,82.35,5,1007.52,28,35.784,1488032,23:33:28:662
-3.00E-04,-0.0362,-0.0384,82.35,5,1007.44,28,33.74,1489032,23:33:29:662
0.0076,-0.0475,0.0152,82.35,5,1007.41,28,34.159,1490032,23:33:30:662
-0.0216,0.0263,-0.0759,82.35,5,1007.37,28,34.487,1491032,23:33:31:662
0.0278,0.0117,0.0029,82.35,5,1007.34,28,33.896,1492032,23:33:32:662
-0.0757,0.0215,-0.1169,82.35,5,1007.32,28,35.759,1493032,23:33:33:662
0.004,-0.0279,-0.0338,82.35,5,1007.32,28,35.025,1494032,23:33:34:662
-0.0224,-0.0049,0.0161,82.35,5,1007.32,28,34.143,1495032,23:33:35:662
0.0214,0.0074,-0.0206,82.35,5,1007.31,28,34.969,1496032,23:33:36:662
-0.0114,-0.0115,0.0042,82.35,5,1007.32,28,36.132,1497032,23:33:37:662
-0.0284,0.0077,0.0126,82.35,5,1007.32,28,34.589,1498032,23:33:38:662
-0.0128,-0.0287,-0.0113,82.35,5,1007.33,28,37.598,1499032,23:33:39:662
0.0069,0.0061,-0.0026,82.35,5,1007.34,27.9,39.221,1500032,23:33:40:662
-0.0236,-0.0473,-0.0601,82.35,5,1007.35,27.9,36.972,1501033,23:33:41:663
-0.0571,0.0208,0.0421,82.35,5,1007.33,27.9,36.388,1502032,23:33:42:662
-0.0482,-0.036,0.0123,82.35,5,1007.33,27.9,39.553,1503032,23:33:43:662
0.0248,-0.0627,-0.0425,82.35,5,1007.63,27.9,37.664,1504033,23:33:44:663
-0.0112,-0.0178,-0.0161,82.35,5,1007.62,28,36.244,1505033,23:33:45:663
0.0338,-0.0077,0.0389,82.35,5,1007.51,28,37.218,1506032,23:33:46:662
0.0444,0.0235,0.0533,82.35,5,1007.44,28,36.9,1507033,23:33:47:663
0.0509,-0.0178,-0.0166,82.35,5,1007.4,28,35.267,1508032,23:33:48:662
-0.0251,0.046,-0.0494,82.35,5,1007.38,28,36.989,1509032,23:33:49:662
-0.0011,0.0089,-5.00E-04,82.35,5,1007.34,28,37.282,1510033,23:33:50:663
-0.0062,0.0026,-0.05,82.35,5,1007.3,28,35.137,1511032,23:33:51:662
0.0282,-0.018,-0.0099,82.35,5,1007.32,28,36.551,1512032,23:33:52:662
-0.0512,-0.0138,0.047,82.35,5,1007.32,28,36.378,1513032,23:33:53:662
0.0354,0.0241,0.1132,82.35,5,1007.52,28,34.152,1514032,23:33:54:662
0.0164,-0.0391,0.0855,82.35,5,1007.68,28,33.747,1515032,23:33:55:662
-0.0055,-0.0544,0.0173,82.35,5,1007.59,28,36.402,1516032,23:33:56:662
0.0315,-0.0256,-0.0504,82.35,5,1007.5,28.1,33.653,1517033,23:33:57:663
-0.0103,-0.0093,0.0061,82.35,5,1007.4,28.1,36.905,1518032,23:33:58:662
0.0793,0.0444,0.0556,82.35,5,1007.39,28,34.975,1519033,23:33:59:663
-0.0151,-0.0175,-0.0297,82.35,5,1007.36,28,35.3,1520032,23:34:00:662
-0.0381,-4.00E-04,0.0349,82.35,5,1007.32,28,35.539,1521032,23:34:01:662
-0.016,0.0597,0.0198,82.35,5,1007.33,28,36.152,1522032,23:34:02:662
-0.0212,-0.0258,0.0241,82.35,5,1007.32,28,40.778,1523033,23:34:03:663
0.0064,0.0072,0.0193,82.35,5,1007.32,28,39.288,1524032,23:34:04:662
-0.0575,-0.0138,0.0472,82.35,5,1007.32,28,37.918,1525032,23:34:05:662
-0.0035,-0.0182,-0.0013,82.35,5,1007.38,28,37.236,1526033,23:34:06:663
-0.0146,0.0214,0.0687,82.35,5,1007.36,28,36.429,1527032,23:34:07:662
0.0287,0.0638,0.0456,82.35,5,1007.34,28,39.789,1528032,23:34:08:662
-0.0518,-0.0295,-0.0062,82.35,5,1007.33,28,40.551,1529033,23:34:09:663
-0.029,-0.053,0.0639,82.35,5,1007.34,28,38.338,1530032,23:34:10:662
-0.0401,0.0493,-0.001,82.35,5,1007.34,28,35.939,1531033,23:34:11:663
-0.0083,0.0466,0.012,82.35,5,1007.35,28,38.397,1532033,23:34:12:663
-2.00E-04,-0.0554,0.0321,82.35,5,1007.33,28,36.822,1533032,23:34:13:662
-0.0317,-0.0559,0.0143,82.35,5,1007.33,28,33.324,1534033,23:34:14:663
0.0075,-0.0196,-0.0443,82.35,5,1007.36,28,33.777,1535032,23:34:15:662
0.0108,0.0581,-0.0266,82.35,5,1007.37,28,33.803,1536033,23:34:16:663
0.0181,-0.0138,0.0229,82.35,5,1007.37,28,34.089,1537032,23:34:17:662
0.0236,-0.0441,-0.0382,82.35,5,1007.36,28,34.176,1538033,23:34:18:663
0.0569,-0.0501,0.0063,82.35,5,1007.36,28,37.009,1539032,23:34:19:662
-0.0286,-0.0555,-0.0149,82.35,5,1007.37,28,36.091,1540032,23:34:20:662
-0.0514,-0.0058,-0.0046,82.35,5,1007.36,28,34.365,1541033,23:34:21:663
0.0078,0.003,0.0089,82.35,5,1007.39,28,38.718,1542032,23:34:22:662
-0.0233,0.0237,0.0184,82.35,5,1007.37,28,38.174,1543033,23:34:23:663
0.0306,0.0388,-0.0068,82.35,5,1007.4,28,38.909,1544032,23:34:24:662
0.0085,0.021,0.0889,82.35,5,1007.4,28,39.111,1545032,23:34:25:662
0.0037,2.00E-04,0.0443,82.35,5,1007.39,28,38.079,1546032,23:34:26:662
0.0045,-0.0247,0.0304,82.35,5,1007.41,28,42.314,1547032,23:34:27:662
-0.0158,0.0057,0.0313,82.35,5,1007.4,28,35.874,1548033,23:34:28:663
-0.0041,-0.0038,0.0166,82.35,5,1007.41,28,37.137,1549032,23:34:29:662
-0.0027,0.0175,0.0096,82.35,5,1007.41,28,36.536,1550033,23:34:30:663
0.0144,-0.0065,-0.0359,82.35,5,1007.43,28,35.563,1551032,23:34:31:662
-0.0246,0.0322,0.0303,82.35,5,1007.4,28,34.981,1552032,23:34:32:662
-0.0087,0.0184,0.0437,82.35,5,1007.4,28,36.313,1553032,23:34:33:662
0.0018,-0.0046,-0.0229,82.35,5,1007.42,27.9,33.309,1554032,23:34:34:662
0.0562,0.0401,-0.0342,82.35,5,1007.4,27.9,33.648,1555033,23:34:35:663
-0.0294,-0.0057,-0.0183,82.35,5,1007.41,27.9,36.956,1556032,23:34:36:662
0.0161,-0.0452,0.0712,82.35,5,1007.42,27.9,35.43,1557032,23:34:37:662
0.0285,0.0015,-0.0025,82.35,5,1007.44,28,35.489,1558032,23:34:38:662
-0.0254,0.0267,-0.0278,82.35,5,1007.41,27.9,38.023,1559032,23:34:39:662
-0.0505,-0.0462,-0.0376,82.35,5,1007.42,27.9,37.059,1560033,23:34:40:663
-0.0686,0.0023,0.0752,82.35,5,1007.42,27.9,35.965,1561032,23:34:41:662
-0.0235,-0.0274,-0.1535,82.35,5,1007.42,27.9,36.781,1562033,23:34:42:663
0.0222,-0.0094,0.0423,82.35,5,1007.45,27.9,38.88,1563032,23:34:43:662
0.0226,-0.0744,-0.0697,82.35,5,1007.43,27.9,37.09,1564032,23:34:44:662
-0.0372,-0.0159,0.0138,82.35,5,1007.46,27.9,37.135,1565033,23:34:45:663
0.081,0.0407,0.0454,82.35,5,1007.44,27.9,36.48,1566032,23:34:46:662
-0.0456,-0.0122,0.0527,82.35,5,1007.46,27.9,37.032,1567032,23:34:47:662
-0.0207,-6.00E-04,0.0451,82.35,5,1007.46,27.9,36.783,1568033,23:34:48:663
-0.0122,-0.0307,0.0256,82.35,5,1007.43,27.9,35.893,1569032,23:34:49:662
-8.00E-04,-0.0074,-0.0523,82.35,5,1007.48,27.9,34.382,1570032,23:34:50:662
0.0137,0.0165,0.032,82.35,5,1007.47,27.9,36.527,1571033,23:34:51:663
-0.0192,0.0167,-0.0213,82.35,5,1007.49,27.9,33.454,1572032,23:34:52:662
-0.0059,0.0271,-0.0104,82.35,5,1007.48,27.9,35.438,1573032,23:34:53:662
0.0268,-0.0139,0.0216,82.35,5,1007.48,27.9,34.82,1574032,23:34:54:662
-0.0339,-0.0061,0.0169,82.35,5,1007.5,27.9,33.028,1575032,23:34:55:662
0.0561,0.0451,0.015,82.35,5,1007.5,27.9,35.209,1576032,23:34:56:662
-0.0483,0.0262,-0.0476,82.35,5,1007.46,27.9,34.735,1577032,23:34:57:662
-0.0141,0.0063,-0.0126,82.35,5,1007.48,27.9,33.287,1578033,23:34:58:663
0.0059,0.0284,-0.0028,82.35,5,1007.44,27.9,35.727,1579032,23:34:59:662
0.0462,-0.0187,-0.089,82.35,5,1007.47,27.9,34.084,1580033,23:35:00:663
7.00E-04,-0.0363,-0.0701,82.35,5,1007.47,27.9,37.043,1581032,23:35:01:662
0.0021,0.0094,-0.0571,82.35,5,1007.47,27.9,35.222,1582032,23:35:02:662
-0.0232,0.0289,0.029,82.35,5,1007.49,27.9,35.234,1583032,23:35:03:662
0.0285,-0.0104,0.0319,82.35,5,1007.48,27.9,36.911,1584032,23:35:04:662
-0.0235,-0.0197,-0.0131,82.35,5,1007.49,27.9,36.753,1585033,23:35:05:663
-0.0159,0.0264,-0.0526,82.35,5,1007.47,27.9,35.291,1586032,23:35:06:662
-0.0271,-0.001,0.0329,82.35,5,1007.47,27.9,38.277,1587032,23:35:07:662
-0.025,-0.0115,-0.0116,82.35,5,1007.5,27.9,39.795,1588032,23:35:08:662
-0.0137,-0.0653,0.0385,82.35,5,1007.47,27.9,35.117,1589032,23:35:09:662
0.0263,-0.0212,-3.00E-04,82.35,5,1007.48,27.9,36.346,1590033,23:35:10:663
-0.0179,0.0491,0.0737,82.35,5,1007.5,27.9,39.018,1591032,23:35:11:662
0.0191,0.0014,0.011,82.35,5,1007.51,27.9,35.597,1592033,23:35:12:663
-0.0354,-0.0053,0.0248,82.35,5,1007.51,27.9,33.498,1593032,23:35:13:662
0.0288,0.0077,0.0027,82.35,5,1007.48,27.9,34.996,1594032,23:35:14:662
0.0117,-0.0147,-0.0296,82.35,5,1007.49,27.9,34.733,1595033,23:35:15:663
-0.0512,0.0193,0.0334,82.35,5,1007.47,27.9,34.678,1596032,23:35:16:662
-0.0248,0.0269,0.0289,82.35,5,1007.48,27.9,33.425,1597033,23:35:17:663
-0.0033,0.0168,-0.0147,82.35,5,1007.48,27.9,36.158,1598032,23:35:18:662
-0.0189,-0.0104,0.0643,82.35,5,1007.47,27.9,34.662,1599032,23:35:19:662
0.0489,-0.0108,-0.0044,82.35,5,1007.49,27.9,33.433,1600032,23:35:20:662
0.0168,0.009,-0.0335,82.35,5,1007.46,27.9,35.904,1601032,23:35:21:662
-0.0115,-0.0046,-0.0525,82.35,5,1007.46,27.9,36.174,1602032,23:35:22:662
0.0086,0.0177,-0.0463,82.35,5,1007.47,27.9,35.624,1603032,23:35:23:662
-0.0099,-0.0656,-0.0421,82.35,5,1007.46,27.9,36.04,1604033,23:35:24:663
0.0103,0.0254,-0.0229,82.35,5,1007.47,27.9,35.299,1605032,23:35:25:662
0.0484,0.0335,-0.0795,82.35,5,1007.47,27.9,37.401,1606032,23:35:26:662
0.0014,-0.0285,-0.0133,82.35,5,1007.49,27.9,35.942,1607032,23:35:27:662
0.0294,0.0257,0.0255,82.35,5,1007.5,27.9,36.081,1608032,23:35:28:662
0.0116,0.0163,0.0106,82.35,5,1007.48,27.9,37.847,1609033,23:35:29:663
0.0084,0.0257,0.0066,82.35,5,1007.5,27.9,36.385,1610032,23:35:30:662
0.0079,-0.0386,-0.0012,82.35,5,1007.46,27.9,35.581,1611032,23:35:31:662
0.0127,-0.0363,0.0609,82.35,5,1007.49,27.9,36.286,1612033,23:35:32:663
0.0127,0.0127,0.0232,82.35,5,1007.49,27.9,36.277,1613032,23:35:33:662
0.0372,-0.0275,0.0025,82.35,5,1007.48,27.9,31.718,1614032,23:35:34:662
-0.0343,0.0397,0.0463,82.35,5,1007.44,27.9,34.24,1615032,23:35:35:662
0.029,-0.0088,-0.0226,82.35,5,1007.45,27.9,37.743,1616033,23:35:36:663
0.0199,-0.0281,-0.0035,82.35,5,1007.43,27.9,32.57,1617032,23:35:37:662
0.0192,0.0094,0.0178,82.35,5,1007.42,27.9,33.732,1618033,23:35:38:663
0.0518,0.0198,-0.0016,82.35,5,1007.42,27.9,34.991,1619032,23:35:39:662
-0.0232,0.0393,0.0418,82.35,5,1007.44,27.9,36.165,1620032,23:35:40:662
0.0057,0.0544,-0.014,82.35,5,1007.47,27.9,35.647,1621033,23:35:41:663
-0.0092,0.0251,0.012,82.35,5,1007.44,27.9,35.754,1622032,23:35:42:662
-0.04,0.0315,-0.0065,82.35,5,1007.43,27.9,39.325,1623032,23:35:43:662
-0.013,-0.0293,0.0306,82.35,5,1007.45,27.9,38.233,1624032,23:35:44:662
0.0152,0.0116,-0.0398,82.35,5,1007.44,27.9,38.637,1625032,23:35:45:662
-0.0084,-0.026,-0.0788,82.35,5,1007.43,27.9,39.015,1626032,23:35:46:662
-0.0494,-0.0493,0.0213,82.35,5,1007.43,27.9,38.865,1627032,23:35:47:662
0.0192,-0.0318,-0.0078,82.35,5,1007.45,27.9,39.146,1628032,23:35:48:662
0.0098,0.0213,0.0056,82.35,5,1007.47,27.9,38.282,1629032,23:35:49:662
-0.0016,0.0144,0.0669,82.35,5,1007.44,27.9,34.334,1630033,23:35:50:663
-0.0238,-0.0279,-0.0921,82.35,5,1007.48,27.9,35.463,1631032,23:35:51:662
-0.0412,-0.0696,-0.1518,82.35,5,1007.46,27.9,36.249,1632032,23:35:52:662
-0.0109,-0.0027,-0.0295,82.35,5,1007.48,27.9,36.418,1633032,23:35:53:662
-0.0202,-0.0155,0.0731,82.35,5,1007.49,27.9,37.27,1634032,23:35:54:662
-0.0266,0.0524,-0.0013,82.35,5,1007.51,27.9,38.367,1635033,23:35:55:663
-0.0408,0.0291,0.0894,82.35,5,1007.5,27.9,38.437,1636032,23:35:56:662
-0.0625,-0.0138,-0.0463,82.35,5,1007.49,27.9,38.034,1637033,23:35:57:663
-0.0015,-0.0091,-0.0615,82.35,5,1007.52,27.9,41.98,1638032,23:35:58:662
-0.0082,0.0218,0.0284,82.35,5,1007.67,27.9,41.291,1639032,23:35:59:662
-0.0036,0.0583,0.0149,82.35,5,1007.78,27.9,41.081,1640032,23:36:00:662
-0.0756,-0.0666,-0.0189,82.35,5,1007.69,28,38.763,1641033,23:36:01:663
0.0039,0.0172,-0.0204,82.35,5,1007.63,28,35.951,1642032,23:36:02:662
-0.0216,-0.0043,0.043,82.35,5,1007.58,28,35.634,1643032,23:36:03:662
-0.0221,0.016,-0.0315,82.35,5,1007.52,28,34.133,1644032,23:36:04:662
-0.0429,0.0245,-0.0358,82.35,5,1007.51,28,34.091,1645032,23:36:05:662
-0.0625,0.0198,0.0234,82.35,5,1007.48,28,36.75,1646032,23:36:06:662
-0.0027,0.0303,0.0076,82.35,5,1007.49,28,35.061,1647033,23:36:07:663
0.0119,-0.0152,0.0141,82.35,5,1007.49,28,37.566,1648032,23:36:08:662
0.0429,-0.0198,0.0271,82.35,5,1007.5,28,39.298,1649032,23:36:09:662
-0.0163,0.0514,0.0465,82.35,5,1007.46,28,34.838,1650032,23:36:10:662
0.0334,0.0235,0.0018,82.35,5,1007.48,28,36.134,1651032,23:36:11:662
-0.0249,-0.0148,0.0176,82.35,5,1007.47,28,37.31,1652032,23:36:12:662
0.0159,0.0054,-0.0188,82.35,5,1007.48,28,37.91,1653032,23:36:13:662
-0.0133,0.0057,0.0875,82.35,5,1007.48,28,38.777,1654033,23:36:14:663
-0.0224,0.0026,-0.0153,82.35,5,1007.52,28,36.703,1655032,23:36:15:662
-0.0556,8.00E-04,-0.0522,82.35,5,1007.56,28,34.521,1656032,23:36:16:662
0,0.0157,-0.0331,82.35,5,1007.54,28,37.366,1657032,23:36:17:662
0.0129,0.0775,0.0705,82.35,5,1007.52,28,34.56,1658032,23:36:18:662
-0.0019,-0.0411,0.0175,82.35,5,1007.6,28,34.713,1659032,23:36:19:662
-0.0281,-0.0422,0.0088,82.35,5,1007.57,28,33.319,1660032,23:36:20:662
0.0533,-0.0169,0.0215,82.35,5,1007.52,28,34.895,1661033,23:36:21:663
0.0259,0.0055,0.0329,82.35,5,1007.53,28,37.671,1662032,23:36:22:662
-0.0014,-0.0285,0.0498,82.35,5,1007.54,28,33.818,1663032,23:36:23:662
-0.0203,-0.0097,-0.0815,82.35,5,1007.52,28,34.31,1664033,23:36:24:663
0.0385,0.0042,-0.0213,82.35,5,1007.51,28,34.693,1665032,23:36:25:662
0.0572,-0.0467,-0.0032,82.35,5,1007.52,28,38.71,1666032,23:36:26:662
-0.0298,-0.0325,-0.0553,82.35,5,1007.51,28,35.645,1667032,23:36:27:662
-0.0185,-0.0358,-0.0213,82.35,5,1007.52,28,35.177,1668033,23:36:28:663
-0.0099,-0.0548,-0.0115,82.35,5,1007.5,28,41.876,1669033,23:36:29:663
0.0482,-0.0206,-0.0118,82.35,5,1007.49,28,33.78,1670032,23:36:30:662
0.042,0.039,0.0022,82.35,5,1007.51,28,33.613,1671032,23:36:31:662
-0.0132,0.0116,-0.0308,82.35,5,1007.52,28,34.158,1672032,23:36:32:662
0.0056,-0.0085,-0.0728,82.35,5,1007.52,28,32.814,1673033,23:36:33:663
-0.0033,-0.034,-0.0149,82.35,5,1007.52,28,31.822,1674032,23:36:34:662
-0.0455,-0.0332,-0.0116,82.35,5,1007.54,28,32.425,1675033,23:36:35:663
0.0545,0.0416,-0.0278,82.35,5,1007.55,28,33.637,1676032,23:36:36:662
-0.0043,0.0255,-0.0264,82.35,5,1007.53,28,33.696,1677032,23:36:37:662
0.0171,-0.0193,-0.0026,82.35,5,1007.54,28,33.389,1678032,23:36:38:662
-0.023,0.0337,0.0122,82.35,5,1007.52,28,35.002,1679033,23:36:39:663
-0.0086,0.0079,-0.0608,82.35,5,1007.55,28,34.386,1680032,23:36:40:662
0.0321,0.05,0.0462,82.35,5,1007.54,28,34.667,1681032,23:36:41:662
-0.0589,0.0292,-0.0383,82.35,5,1007.55,28,34.35,1682032,23:36:42:662
-0.0315,0.0201,0.0188,82.35,5,1007.56,28,34.678,1683034,23:36:43:664
-0.0919,-0.0869,-3.00E-04,82.35,5,1007.54,28,34.808,1684032,23:36:44:662
0.0275,0.0067,-0.0107,82.35,5,1007.54,28,35.012,1685032,23:36:45:662
-0.043,0.0433,-0.0127,82.35,5,1007.59,28,32.923,1686032,23:36:46:662
-0.042,0.0444,0.0803,82.35,5,1007.58,27.9,33.835,1687033,23:36:47:663
0.0483,-0.0058,0.0536,82.35,5,1007.56,27.9,31.798,1688033,23:36:48:663
0.0093,-0.0197,0.0789,82.35,5,1007.57,27.9,31.631,1689032,23:36:49:662
0.0039,0.0257,-0.0022,82.35,5,1008.12,28,32.032,1690032,23:36:50:662
-0.073,0.0273,0.0464,82.35,5,1008.32,28,31.595,1691032,23:36:51:662
0.0243,0.0221,-0.0075,82.35,5,1008.27,28.1,32.902,1692032,23:36:52:662
0.0095,0.0219,0.0138,82.35,5,1008.3,28.1,31.919,1693032,23:36:53:662
-0.0043,0.0336,0.0276,82.35,5,1008.09,28.2,31.213,1694033,23:36:54:663
-0.0651,-0.0768,-0.0887,82.35,5,1008.1,28.2,32.463,1695032,23:36:55:662
0.0103,-0.0211,-0.025,82.35,5,1007.96,28.3,32.236,1696032,23:36:56:662
0.0093,-0.038,0.0446,82.35,5,1008.03,28.3,32.904,1697032,23:36:57:662
0.0138,0.0323,0.0525,82.35,5,1007.97,28.3,33.741,1698032,23:36:58:662
0.0019,0.0108,0.0209,82.35,5,1008.47,28.3,34.533,1699032,23:36:59:662
-0.6072,0.086,-0.3605,82.35,5,1009,28.4,50.077,1700032,23:37:00:662
0.037,0.081,0.102,82.35,5,1009.23,28.5,53.809,1701032,23:37:01:662
-0.0121,0.0112,0.0154,82.35,5,1009.45,28.7,33.144,1702032,23:37:02:662
0.0397,0.0615,-1.00E-04,82.35,5,1009.17,28.8,34.166,1703032,23:37:03:662
-0.0571,0.0161,0.0142,82.35,5,1008.89,28.9,34.996,1704032,23:37:04:662
-0.0032,-0.0025,0.1114,82.35,5,1008.83,29,34.858,1705032,23:37:05:662
