LINEAR ACCELERATION X,LINEAR ACCELERATION Y,LINEAR ACCELERATION Z,LIGHT (lux),PROXIMITY (m),ATMOSPHERIC PRESSURE (hPa),TEMPERATURE (C),SOUND LEVEL (dB),Time since start in ms ,YYYY-MO-DD HH-MI-SS_SSS
-0.0345,0.0409,-0.0572,35.09,5,1014.59,30.6,0,8,17:20:34:227
0.014,0.0318,-0.039,35.09,5,1014.62,30.6,0,1010,17:20:35:229
0.0299,0.0329,-0.0139,35.09,5,1014.79,30.6,0,2009,17:20:36:228
-0.0121,0.0091,0.0653,35.09,5,1014.68,30.7,0,3011,17:20:37:230
0.0212,0.0693,-0.0277,35.09,5,1014.63,30.7,0,4009,17:20:38:228
-0.025,-0.045,0.0218,35.09,5,1014.61,30.7,0,5009,17:20:39:228
-0.0068,0.0349,0.0264,35.09,5,1014.47,30.7,0,6009,17:20:40:228
0.0577,-0.0084,0.0411,35.09,5,1014.37,30.7,0,7009,17:20:41:228
-0.0188,0.0063,0.0167,35.09,5,1014.39,30.7,0,8010,17:20:42:229
0.0138,-0.0179,-0.0119,35.09,5,1014.35,30.7,0,9009,17:20:43:228
0.0174,0.0018,0.0628,35.09,5,1014.31,30.7,0,10009,17:20:44:228
0.0643,0.0236,-0.0223,35.09,5,1014.25,30.7,0,11009,17:20:45:228
-0.031,0.0097,0.0174,35.09,5,1014.25,30.6,0,12009,17:20:46:228
-0.0283,-0.038,0.0232,35.09,5,1014.34,30.6,0,13009,17:20:47:228
0.0619,0.1812,0.0243,35.09,5,1014.34,30.6,0,14009,17:20:48:228
-0.0473,-0.0393,0.0305,35.09,5,1014.41,30.6,0,15009,17:20:49:228
-0.0022,-0.1084,-0.0541,35.09,5,1014.34,30.6,0,16009,17:20:50:228
0.0106,0.042,0.0093,35.09,5,1014.34,30.6,0,17009,17:20:51:228
0.0582,-0.0176,-0.0302,35.09,5,1014.41,30.5,0,18009,17:20:52:228
-0.0192,-0.0174,-0.0077,35.09,5,1014.44,30.5,0,19009,17:20:53:228
-0.0244,-0.0448,-0.0499,35.09,5,1014.49,30.6,0,20009,17:20:54:228
0.0051,-0.0203,-0.0125,29.14,5,1014.41,30.6,0,21009,17:20:55:228
0.0427,-0.0555,-0.0041,29.14,5,1014.32,30.6,0,22009,17:20:56:228
0.0624,-0.006,0.0136,29.14,5,1014.3,30.5,0,23009,17:20:57:228
0.0957,-0.0231,0.0034,29.14,5,1014.34,30.5,0,24010,17:20:58:229
-0.0529,0.0363,0.0196,29.14,5,1014.4,30.5,0,25009,17:20:59:228
-0.033,0.0541,0.0592,43.29,5,1014.38,30.4,0,26009,17:21:00:228
-0.0796,-0.0346,-0.0372,43.29,5,1014.44,30.4,0,27010,17:21:01:229
0.0124,-0.0143,-0.0293,43.29,5,1014.48,30.4,0,28009,17:21:02:228
-0.0262,-0.0075,-0.0373,43.29,5,1014.42,30.4,0,29009,17:21:03:228
-0.0454,0.0074,-0.0488,43.29,5,1014.39,30.4,0,30010,17:21:04:229
0.054,-0.0127,0.0715,43.29,5,1014.34,30.4,0,31009,17:21:05:228
0.0122,0.002,-0.0204,43.29,5,1014.31,30.3,0,32009,17:21:06:228
0.0576,0.0252,0.032,43.29,5,1014.32,30.3,0,33009,17:21:07:228
-0.002,-0.0092,-0.0241,43.29,5,1014.31,30.3,0,34009,17:21:08:228
-0.0016,-0.0132,-0.0325,43.29,5,1014.35,30.3,0,35009,17:21:09:228
-0.0038,0.0097,-0.0205,43.29,5,1014.36,30.3,0,36010,17:21:10:229
0.0323,0.0071,-0.0052,43.29,5,1014.36,30.2,0,37009,17:21:11:228
-0.0243,-0.057,-0.0109,43.29,5,1014.4,30.2,0,38009,17:21:12:228
0.0179,0.0178,-0.021,43.29,5,1014.36,30.2,0,39009,17:21:13:228
7.00E-04,-0.0268,0.0084,43.29,5,1014.38,30.2,0,40009,17:21:14:228
-0.0088,0.0336,0.0019,43.29,5,1014.38,30.2,0,41009,17:21:15:228
-7.00E-04,-0.03,-0.0228,43.29,5,1014.38,30.2,0,42009,17:21:16:228
-0.0564,-0.0237,0.0491,43.29,5,1014.37,30.2,0,43008,17:21:17:227
0.0533,0.0373,0.0773,43.29,5,1014.4,30.1,0,44009,17:21:18:228
0.0109,-0.0509,-0.0398,43.29,5,1014.43,30.1,0,45009,17:21:19:228
-0.0468,-0.0029,-0.003,43.29,5,1014.43,30.1,0,46009,17:21:20:228
0.0033,-0.0418,-0.0245,43.29,5,1014.46,30.1,0,47008,17:21:21:227
-0.0667,0.0191,-0.0169,43.29,5,1014.44,30.1,0,48009,17:21:22:228
-0.0451,-0.0214,-0.0305,43.29,5,1014.44,30.1,0,49009,17:21:23:228
0.0188,0.0398,0.0411,43.29,5,1014.44,30.1,0,50009,17:21:24:228
-0.0224,-0.0203,-0.0383,43.29,5,1014.44,30.1,0,51009,17:21:25:228
-0.0129,-0.0163,-0.1007,43.29,5,1014.43,30.1,0,52009,17:21:26:228
-0.0086,0.0255,0.0043,43.29,5,1014.46,30.1,0,53009,17:21:27:228
0.0321,0.0271,-0.0069,43.29,5,1014.42,30.1,0,54009,17:21:28:228
-0.0506,-0.0402,0.0119,43.29,5,1014.42,30.1,0,55009,17:21:29:228
0.0147,-0.0023,0.1157,43.29,5,1014.44,30.1,0,56009,17:21:30:228
0.0366,-0.0477,0.0046,43.29,5,1014.43,30,0,57009,17:21:31:228
-0.0152,0.0162,-0.0779,43.29,5,1014.42,30,0,58009,17:21:32:228
0.0056,0.0197,-0.0377,43.29,5,1014.41,30,0,59009,17:21:33:228
0.017,-0.0278,-0.0642,43.29,5,1014.48,30,0,60009,17:21:34:228
0.0398,0.048,0.0344,43.29,5,1014.54,30,0,61009,17:21:35:228
0.069,-0.0129,-0.0136,43.29,5,1014.6,30.1,0,62009,17:21:36:228
0.0378,-0.0229,-0.0247,43.29,5,1014.62,30.1,0,63009,17:21:37:228
0.0131,-0.0183,-0.0192,42.45,5,1014.84,30.1,0,64009,17:21:38:228
0.0125,0.008,0.0011,42.45,5,1014.89,30.1,0,65009,17:21:39:228
-0.0329,0.019,0.0601,42.45,5,1014.8,30.1,0,66009,17:21:40:228
-0.051,0.0314,-0.0213,42.45,5,1014.69,30.1,0,67009,17:21:41:228
-0.0494,-0.0234,-0.0254,42.45,5,1014.53,30.1,0,68009,17:21:42:228
0.0573,0.0604,0.0545,42.45,5,1014.42,30.1,0,69009,17:21:43:228
-0.0119,0.0159,-0.0317,42.45,5,1014.29,30.1,0,70009,17:21:44:228
0.029,0.004,-8.00E-04,42.45,5,1014.21,30.1,0,71009,17:21:45:228
-0.0169,0.0399,-0.0163,42.45,5,1014.13,30.1,0,72009,17:21:46:228
0.0041,-0.0593,0.0646,42.45,5,1014.1,30.1,0,73009,17:21:47:228
0.0077,-3.00E-04,-0.0245,42.45,5,1014.1,30,0,74009,17:21:48:228
-0.0021,0.0321,-0.0121,42.45,5,1014.09,30,0,75009,17:21:49:228
-0.0033,0.0315,0.0104,42.45,5,1014.11,30,0,76010,17:21:50:229
0.0034,0.0116,0.0359,42.45,5,1014.09,30,0,77009,17:21:51:228
-0.0152,-0.0444,0.0138,42.45,5,1014.12,29.9,0,78009,17:21:52:228
-0.0114,0.0119,-0.0077,42.45,5,1014.12,29.9,0,79010,17:21:53:229
0.0092,-0.0059,0.0304,42.45,5,1014.13,29.9,0,80009,17:21:54:228
-0.0169,0.021,-0.0523,42.45,5,1014.13,29.9,0,81009,17:21:55:228
-0.0425,-0.0019,0.0568,42.45,5,1014.17,29.8,0,82010,17:21:56:229
0.0137,-0.0498,0.0108,42.45,5,1014.18,29.8,0,83009,17:21:57:228
-0.0178,-0.0269,0.009,42.45,5,1014.18,29.8,0,84009,17:21:58:228
-0.0386,-0.007,-0.0427,42.45,5,1014.19,29.8,0,85009,17:21:59:228
0.0102,0.0263,0.009,42.45,5,1014.21,29.8,0,86009,17:22:00:228
0.0349,0.0101,-0.0202,42.45,5,1014.21,29.7,0,87009,17:22:01:228
-0.0021,0.0076,0.0452,42.45,5,1014.21,29.7,0,88009,17:22:02:228
0.0129,0.0109,0.0296,42.45,5,1014.23,29.7,0,89009,17:22:03:228
-0.0576,0.0152,0.0261,42.45,5,1014.25,29.7,0,90009,17:22:04:228
0.0248,0.0226,0.0054,42.45,5,1014.26,29.7,0,91010,17:22:05:229
-0.0221,0.0114,0.0624,42.45,5,1014.26,29.7,0,92009,17:22:06:228
-0.0336,0.0048,-0.0209,42.45,5,1014.27,29.6,0,93009,17:22:07:228
-0.0404,-0.0181,0.0075,42.45,5,1014.28,29.6,0,94009,17:22:08:228
0.0329,-0.0397,-0.0267,42.45,5,1014.3,29.6,0,95009,17:22:09:228
-0.0286,0.0044,0.0197,42.45,5,1014.29,29.6,0,96010,17:22:10:229
0.0048,0.0103,0.0109,42.45,5,1014.29,29.6,0,97009,17:22:11:228
-0.0326,-0.0277,0.0347,42.45,5,1014.31,29.6,0,98009,17:22:12:228
0.0302,0.048,-0.0027,42.45,5,1014.3,29.6,0,99010,17:22:13:229
-0.0127,-0.0213,0.0307,42.45,5,1014.34,29.6,0,100009,17:22:14:228
0.0573,-0.0075,-0.034,42.45,5,1014.34,29.6,0,101009,17:22:15:228
0.0526,-0.0128,-2.00E-04,42.45,5,1014.35,29.5,0,102009,17:22:16:228
0.0054,0.0019,0.0338,42.45,5,1014.37,29.5,0,103009,17:22:17:228
-0.0331,-0.0113,0.0542,42.45,5,1014.43,29.5,0,104009,17:22:18:228
-0.0031,-0.0125,0.0242,42.45,5,1014.44,29.5,0,105009,17:22:19:228
0.0152,-0.0059,0.0155,42.45,5,1014.45,29.5,0,106010,17:22:20:229
-0.03,-0.0303,0.0323,42.45,5,1014.44,29.5,0,107009,17:22:21:228
0.0226,-0.0288,-0.0616,42.45,5,1014.41,29.5,0,108009,17:22:22:228
-0.059,-0.0201,-0.0217,42.45,5,1014.41,29.5,0,109009,17:22:23:228
0.0041,0.0124,0.0147,42.45,5,1014.42,29.5,0,110009,17:22:24:228
0.0391,-0.0175,-0.027,42.45,5,1014.39,29.5,0,111009,17:22:25:228
-0.0166,-0.0045,0.0384,42.45,5,1014.39,29.5,0,112009,17:22:26:228
0.0377,0.0219,-0.0251,42.45,5,1014.38,29.4,0,113010,17:22:27:229
-0.0059,0.0048,-0.057,42.45,5,1014.39,29.4,0,114009,17:22:28:228
-0.0823,-0.0588,0.0349,42.45,5,1014.43,29.4,0,115009,17:22:29:228
0.017,-0.0285,0.0263,42.45,5,1014.41,29.4,0,116009,17:22:30:228
-0.0138,0.0144,0.0513,42.45,5,1014.43,29.4,0,117009,17:22:31:228
0.0663,-0.0275,0.0041,42.45,5,1014.55,29.4,0,118009,17:22:32:228
-0.0035,0.0311,-0.0154,42.45,5,1014.54,29.4,0,119009,17:22:33:228
0.0159,-0.0308,0.0479,42.45,5,1014.52,29.4,0,120009,17:22:34:228
-0.0258,-0.036,0.0162,42.45,5,1014.49,29.4,0,121010,17:22:35:229
0.0379,-0.0151,-0.0814,42.45,5,1014.49,29.4,0,122009,17:22:36:228
-0.0334,0.0203,0.1034,42.45,5,1014.46,29.4,0,123008,17:22:37:227
-0.0087,0.0292,-0.0053,42.45,5,1014.44,29.4,0,124009,17:22:38:228
-0.0179,0.0068,-0.0168,42.45,5,1014.4,29.4,0,125009,17:22:39:228
-0.0243,0.006,0.073,42.45,5,1014.39,29.4,0,126009,17:22:40:228
-0.0157,0.0015,0.0594,42.45,5,1014.4,29.4,0,127009,17:22:41:228
0.0341,-0.0045,-0.0284,42.45,5,1014.38,29.4,0,128009,17:22:42:228
0.1217,-0.0298,-0.0095,42.45,5,1014.38,29.4,0,129009,17:22:43:228
-0.0151,0.0147,-0.0037,42.45,5,1014.38,29.4,0,130010,17:22:44:229
0.0142,-0.0128,-0.0655,42.45,5,1014.4,29.3,0,131009,17:22:45:228
-0.0012,0.0262,-0.0067,42.45,5,1014.39,29.3,0,132009,17:22:46:228
0.0058,-0.0311,-0.0785,42.45,5,1014.38,29.3,0,133008,17:22:47:227
-0.0763,0.0243,9.00E-04,42.45,5,1014.38,29.3,0,134009,17:22:48:228
0.029,0.0087,0.0167,42.45,5,1014.4,29.3,0,135009,17:22:49:228
0.0122,0.0067,-0.0709,42.45,5,1014.42,29.3,0,136010,17:22:50:229
0.0528,0.0146,0.0747,42.45,5,1014.42,29.3,0,137009,17:22:51:228
-0.0164,0.0279,-0.0179,42.45,5,1014.41,29.3,0,138009,17:22:52:228
-0.0456,0.0113,-0.0984,42.45,5,1014.41,29.3,0,139009,17:22:53:228
0.0676,-0.015,-0.0294,42.45,5,1014.4,29.3,0,140009,17:22:54:228
0.0133,-0.039,0.0565,42.45,5,1014.41,29.3,0,141009,17:22:55:228
-0.0127,0.0223,-0.0105,42.45,5,1014.41,29.3,0,142010,17:22:56:229
-0.0036,0.0252,0.0293,42.45,5,1014.41,29.3,0,143009,17:22:57:228
-0.0379,0.0157,-0.02,42.45,5,1014.41,29.3,0,144009,17:22:58:228
0.0203,-0.0034,-0.0177,42.45,5,1014.41,29.3,0,145009,17:22:59:228
-0.0217,-0.0263,-0.0534,42.45,5,1014.39,29.3,0,146009,17:23:00:228
0.0077,-0.0372,-0.004,42.45,5,1014.43,29.2,0,147009,17:23:01:228
-0.0212,-0.018,0.0055,42.45,5,1014.45,29.2,0,148009,17:23:02:228
0.0098,-0.0128,0.0181,42.45,5,1014.44,29.2,0,149010,17:23:03:229
-0.0272,0.0195,0.066,42.45,5,1014.43,29.2,0,150009,17:23:04:228
-0.0647,-0.0322,6.00E-04,42.45,5,1014.45,29.2,0,151009,17:23:05:228
-0.013,-0.0333,-0.0176,42.45,5,1014.46,29.2,0,152009,17:23:06:228
0.023,-0.0218,0.0024,42.45,5,1014.43,29.2,0,153009,17:23:07:228
0.0149,0.0167,0.0032,42.45,5,1014.47,29.2,0,154010,17:23:08:229
-0.0358,-0.0048,-0.0656,42.45,5,1014.46,29.2,0,155009,17:23:09:228
-0.0159,0.0164,-0.0188,42.45,5,1014.46,29.2,0,156009,17:23:10:228
0.0119,0.0054,-0.0436,42.45,5,1014.45,29.2,0,157013,17:23:11:232
0.0142,0.0438,0.0897,42.45,5,1014.45,29.2,0,158008,17:23:12:227
0.0039,0.0326,0.0528,42.45,5,1014.49,29.2,0,159010,17:23:13:229
0.0109,-0.0147,0.0868,42.45,5,1014.47,29.2,0,160009,17:23:14:228
-0.0187,-0.0019,-0.0362,42.45,5,1014.48,29.2,0,161009,17:23:15:228
0.0138,2.00E-04,-0.0459,42.45,5,1014.49,29.2,0,162009,17:23:16:228
0.0658,-0.0417,0.0312,42.45,5,1014.48,29.2,0,163010,17:23:17:229
0.0129,0.0307,-0.0279,42.45,5,1014.49,29.2,0,164009,17:23:18:228
0.0528,0.0357,-0.0093,42.45,5,1014.47,29.2,0,165009,17:23:19:228
0.0347,0.0131,0.1062,42.45,5,1014.49,29.1,0,166010,17:23:20:229
0.0626,0.0206,0.0085,42.45,5,1014.48,29.2,0,167009,17:23:21:228
0.0015,0.0107,0.0214,42.45,5,1014.48,29.1,0,168009,17:23:22:228
-0.0032,0.0072,-2.00E-04,42.45,5,1014.48,29.1,0,169010,17:23:23:229
0.0064,0.0269,-0.0276,42.45,5,1014.5,29.1,0,170009,17:23:24:228
-0.0122,-0.0127,-0.0227,42.45,5,1014.47,29.1,0,171009,17:23:25:228
0.0112,0.0462,0.0093,42.45,5,1014.47,29.1,0,172009,17:23:26:228
0.044,7.00E-04,0.0497,42.45,5,1014.46,29.1,0,173009,17:23:27:228
-0.032,-0.0455,-0.0287,42.45,5,1014.49,29.1,0,174009,17:23:28:228
-0.047,0.0269,-0.0225,42.45,5,1014.46,29.1,0,175009,17:23:29:228
-0.0082,0.0289,0.0634,42.45,5,1014.46,29.1,0,176010,17:23:30:229
0.0021,-0.0109,0.0213,42.45,5,1014.48,29.1,0,177009,17:23:31:228
-0.0205,-0.0158,0.0787,42.45,5,1014.6,29.1,0,178009,17:23:32:228
0.0228,0.007,0.0218,42.45,5,1014.8,29.1,0,179009,17:23:33:228
-0.0136,0.0102,0.0122,42.45,5,1014.81,29.1,0,180009,17:23:34:228
-0.0437,-0.0088,0.0272,42.45,5,1014.74,29.2,0,181009,17:23:35:228
0.0915,-0.0043,-0.0545,42.45,5,1014.66,29.2,0,182008,17:23:36:227
0.0107,-0.0037,0.0126,42.45,5,1014.61,29.2,0,183009,17:23:37:228
0.0176,-0.0198,-0.0383,42.45,5,1014.56,29.2,0,184009,17:23:38:228
0.0492,0.0465,0.0654,42.45,5,1014.55,29.2,0,185009,17:23:39:228
0.0781,0.0039,-0.0136,42.45,5,1014.58,29.2,0,186009,17:23:40:228
-0.0205,0.0475,0.0382,42.45,5,1014.58,29.1,0,187009,17:23:41:228
0.0061,0.0108,-0.0181,42.45,5,1014.55,29.1,0,188009,17:23:42:228
0.0339,-0.0154,0.0122,42.45,5,1014.55,29.1,0,189009,17:23:43:228
0.0571,-0.0255,0.0217,42.45,5,1014.82,29.1,0,190009,17:23:44:228
0.0147,0.0028,-0.0012,42.45,5,1014.8,29.2,0,191009,17:23:45:228
-0.0191,-0.011,0.0099,42.45,5,1014.74,29.2,0,192009,17:23:46:228
0.0184,-0.0131,0.0308,42.45,5,1014.69,29.2,0,193009,17:23:47:228
0.0384,0.0055,0.0296,42.45,5,1014.62,29.2,0,194008,17:23:48:227
-0.0232,-0.0348,-0.0107,42.45,5,1014.58,29.2,0,195010,17:23:49:229
0.0043,-0.0252,0.1053,42.45,5,1014.54,29.2,0,196009,17:23:50:228
-0.0141,-0.0166,-0.0088,42.45,5,1014.51,29.2,0,197009,17:23:51:228
-0.0471,-0.0188,0.0245,42.45,5,1014.51,29.2,0,198009,17:23:52:228
-0.0049,-0.0214,-0.0318,42.45,5,1014.49,29.2,0,199009,17:23:53:228
0.0208,0.048,-0.0404,42.45,5,1014.48,29.2,0,200010,17:23:54:229
-0.0297,0.008,-0.0477,42.45,5,1014.49,29.1,0,201009,17:23:55:228
0.0417,-0.0289,0.0066,42.45,5,1014.45,29.1,0,202010,17:23:56:229
0.0226,-0.0286,-0.0231,42.45,5,1014.44,29.1,0,203009,17:23:57:228
-0.0175,0.0196,-0.0529,42.45,5,1014.43,29.1,0,204009,17:23:58:228
0.0033,0.0291,0.0247,42.45,5,1014.47,29.1,0,205009,17:23:59:228
-0.034,0.0367,-0.0256,42.45,5,1014.45,29.1,0,206009,17:24:00:228
0.0168,0.0286,-0.0254,42.45,5,1014.43,29.1,0,207009,17:24:01:228
-0.0024,0.0202,0.052,42.45,5,1014.43,29.1,0,208009,17:24:02:228
-0.0334,-0.0107,0.104,42.45,5,1014.41,29.1,0,209009,17:24:03:228
0.0054,-0.0215,0.0292,42.45,5,1014.44,29.1,0,210009,17:24:04:228
0.051,-0.0039,0.0659,42.45,5,1014.45,29.1,0,211008,17:24:05:227
0.055,0.0103,-0.0379,42.45,5,1014.44,29.1,0,212009,17:24:06:228
-0.0192,0.0023,-0.0272,42.45,5,1014.48,29.1,0,213009,17:24:07:228
0.0013,-0.0577,-0.1178,42.45,5,1014.48,29,0,214009,17:24:08:228
-0.0277,0.0319,0.0014,42.45,5,1014.46,29,0,215009,17:24:09:228
-0.0179,-0.0151,-0.011,42.45,5,1014.48,29,0,216009,17:24:10:228
-0.0348,0.0339,-0.0348,42.45,5,1014.47,29,0,217009,17:24:11:228
0.0298,-0.0042,0.0374,42.45,5,1014.49,29,0,218009,17:24:12:228
-0.0303,-3.00E-04,0.0542,42.45,5,1014.5,29,0,219009,17:24:13:228
0.0253,-0.0475,-0.0122,42.45,5,1014.48,29,0,220009,17:24:14:228
-0.0215,0.0074,-0.014,42.45,5,1014.47,29,0,221009,17:24:15:228
-0.0307,0.0068,0.0485,42.45,5,1014.45,29,0,222009,17:24:16:228
0.0098,-0.0277,-0.0282,42.45,5,1014.44,29,0,223009,17:24:17:228
0.0229,0.021,-0.0033,42.45,5,1014.45,29,0,224009,17:24:18:228
-0.0068,-0.0711,-0.0602,42.45,5,1014.45,29,0,225009,17:24:19:228
0.0357,-0.0472,-0.0143,42.45,5,1014.45,29,0,226009,17:24:20:228
-0.0156,-0.0408,-0.0273,42.45,5,1014.47,29,0,227009,17:24:21:228
-4.00E-04,-0.0025,-0.0635,42.45,5,1014.5,29,0,228009,17:24:22:228
-0.0244,-0.0066,-0.0432,42.45,5,1014.5,29,0,229009,17:24:23:228
0.0374,-0.0268,-0.018,42.45,5,1014.54,29,0,230009,17:24:24:228
-0.0583,0.0246,-0.0593,42.45,5,1014.54,29,0,231013,17:24:25:232
-0.0107,-0.0527,-0.1236,42.45,5,1014.55,29,0,232009,17:24:26:228
-0.0602,-0.0119,0.0513,42.45,5,1014.53,29,0,233008,17:24:27:227
0.0386,0.0063,0.0607,42.45,5,1014.53,29,0,234010,17:24:28:229
-0.0148,0.0044,0.0439,42.45,5,1014.51,29,0,235009,17:24:29:228
0.0145,-0.0675,0.0463,42.45,5,1014.48,29,0,236009,17:24:30:228
-0.0019,-0.0198,-0.0063,42.45,5,1014.52,29,0,237010,17:24:31:229
0.0322,-0.027,-0.0134,42.45,5,1014.5,29,0,238009,17:24:32:228
0.0137,0.0351,0.0168,42.45,5,1014.47,28.9,0,239009,17:24:33:228
-0.0104,-0.0134,0.0111,42.45,5,1014.47,28.9,0,240010,17:24:34:229
-0.0406,0.0041,-0.0909,42.45,5,1014.5,28.9,0,241009,17:24:35:228
-4.00E-04,-0.0366,-0.0505,42.45,5,1014.52,28.9,0,242010,17:24:36:229
-0.0126,0.0443,1.00E-04,42.45,5,1014.49,28.9,0,243009,17:24:37:228
0.0206,0.0253,0.0348,42.45,5,1014.48,28.9,0,244009,17:24:38:228
-0.0322,0.0074,-0.0867,42.45,5,1014.5,28.9,0,245010,17:24:39:229
-0.0406,0.0046,0.0315,42.45,5,1014.51,28.9,0,246009,17:24:40:228
-5.00E-04,0.0175,0.0234,42.45,5,1014.53,28.9,0,247009,17:24:41:228
-0.0249,0.0503,0.0195,42.45,5,1014.52,28.9,0,248009,17:24:42:228
-0.0585,-0.0454,-0.1123,42.45,5,1014.53,28.9,0,249009,17:24:43:228
-0.0409,-0.0073,-0.0178,42.45,5,1014.55,28.9,0,250009,17:24:44:228
0.0019,0.0017,-0.0498,42.45,5,1014.5,28.9,0,251008,17:24:45:227
-0.001,0.0316,-0.0216,42.45,5,1014.52,28.9,0,252010,17:24:46:229
-0.0212,-0.008,-0.0405,42.45,5,1014.5,28.9,0,253009,17:24:47:228
0.0248,0.0104,-0.0291,42.45,5,1014.48,28.9,0,254009,17:24:48:228
0.0445,0.0116,0.0153,42.45,5,1014.47,28.9,0,255009,17:24:49:228
0.0549,0.0547,-0.0179,42.45,5,1014.51,28.9,0,256009,17:24:50:228
-0.0312,-0.0168,0.0502,42.45,5,1014.5,28.9,0,257010,17:24:51:229
0.0038,0.047,-0.031,42.45,5,1014.51,28.9,0,258009,17:24:52:228
-0.0516,0.041,-0.0548,42.45,5,1014.49,28.9,0,259009,17:24:53:228
0.0053,-0.0262,-0.022,42.45,5,1014.46,28.9,0,260009,17:24:54:228
0.0198,0.016,-0.0017,42.45,5,1014.5,28.9,0,261009,17:24:55:228
-0.0351,0.0234,0.038,42.45,5,1014.48,28.9,0,262009,17:24:56:228
-0.0213,-0.0112,0.0628,42.45,5,1014.48,28.8,0,263009,17:24:57:228
0.0415,-0.0207,-0.0878,42.45,5,1014.47,28.8,0,264009,17:24:58:228
0.0215,0.0056,0.0152,42.45,5,1014.46,28.8,0,265009,17:24:59:228
0.0371,0.025,-0.0385,42.45,5,1014.5,28.8,0,266009,17:25:00:228
-0.0123,0.0264,-0.0043,42.45,5,1014.49,28.8,0,267009,17:25:01:228
-0.035,0.0103,0.046,42.45,5,1014.47,28.8,0,268010,17:25:02:229
-0.0385,0.0158,0.0122,42.45,5,1014.48,28.8,0,269009,17:25:03:228
-0.012,0.0227,-0.0214,42.45,5,1014.5,28.8,0,270009,17:25:04:228
0.0047,0.0293,0.0076,42.45,5,1014.47,28.8,0,271009,17:25:05:228
-0.0434,-0.0155,0.0463,42.45,5,1014.5,28.8,0,272009,17:25:06:228
0.0764,0.0038,-0.0285,42.45,5,1014.48,28.8,0,273009,17:25:07:228
0.0171,-0.0307,-0.0676,42.45,5,1014.47,28.8,0,274009,17:25:08:228
0.0015,-0.0158,-0.0646,42.45,5,1014.45,28.8,0,275010,17:25:09:229
-0.049,0.0084,-0.0119,42.45,5,1014.49,28.8,0,276009,17:25:10:228
-0.0599,0.0592,-0.0504,42.45,5,1014.49,28.8,0,277009,17:25:11:228
0.0064,0.024,-0.0296,42.45,5,1014.49,28.8,0,278009,17:25:12:228
0.0439,-0.0245,-0.0578,42.45,5,1014.5,28.8,0,279009,17:25:13:228
-0.0242,0.0114,-0.0104,42.45,5,1014.51,28.8,0,280010,17:25:14:229
-0.0425,0.0401,-0.0116,42.45,5,1014.49,28.8,0,281008,17:25:15:227
-0.034,0.0025,0.0213,42.45,5,1014.51,28.8,0,282008,17:25:16:227
-0.0533,-0.0275,0.0127,42.45,5,1014.49,28.8,0,283009,17:25:17:228
0.0315,-0.0082,-0.0563,42.45,5,1014.48,28.7,0,284009,17:25:18:228
-0.008,-0.0696,-0.0196,42.45,5,1014.48,28.7,0,285009,17:25:19:228
-0.0344,-0.0038,0.0407,42.45,5,1014.49,28.7,0,286009,17:25:20:228
0.0144,7.00E-04,-0.0079,42.45,5,1014.49,28.7,0,287009,17:25:21:228
-0.0326,-0.0042,0.0052,42.45,5,1014.49,28.7,0,288009,17:25:22:228
-0.0075,-0.0191,0.0403,42.45,5,1014.5,28.7,0,289010,17:25:23:229
0.0052,-0.0404,-0.1073,42.45,5,1014.49,28.7,0,290009,17:25:24:228
-0.0282,-0.0226,-0.0279,42.45,5,1014.51,28.7,0,291009,17:25:25:228
0.0464,0.0466,-0.0334,42.45,5,1014.52,28.7,0,292009,17:25:26:228
0.0043,0.0137,-0.0493,42.45,5,1014.51,28.7,0,293010,17:25:27:229
-0.0198,0.0285,0.0225,42.45,5,1014.49,28.7,0,294009,17:25:28:228
0.015,-0.0347,0.0406,42.45,5,1014.49,28.7,0,295008,17:25:29:227
-0.0213,-0.013,-0.1018,42.45,5,1014.5,28.7,0,296010,17:25:30:229
0.0143,0.0107,0.0317,42.45,5,1014.49,28.7,0,297009,17:25:31:228
-0.0582,0.0257,0.0658,42.45,5,1014.5,28.7,0,298009,17:25:32:228
-0.0285,-0.0655,0.086,42.45,5,1014.5,28.7,0,299009,17:25:33:228
0.0041,0.0202,-0.0372,42.45,5,1014.52,28.7,0,300010,17:25:34:229
0.0261,-0.0022,-0.042,42.45,5,1014.53,28.7,0,301009,17:25:35:228
-0.0135,0.0083,0.032,42.45,5,1014.52,28.7,0,302009,17:25:36:228
-0.0128,-0.0048,0.0133,42.45,5,1014.51,28.7,0,303010,17:25:37:229
0.0259,0.0189,0.0136,42.45,5,1014.52,28.7,0,304009,17:25:38:228
0.0499,0.0275,0.0124,42.45,5,1014.52,28.7,0,305009,17:25:39:228
-0.0148,-0.023,-0.0164,42.45,5,1014.51,28.7,0,306009,17:25:40:228
-0.0083,-0.0636,-0.0049,42.45,5,1014.53,28.7,0,307009,17:25:41:228
-0.0511,-0.0163,0.0042,42.45,5,1014.52,28.7,0,308009,17:25:42:228
-0.0101,0.0299,-0.0021,42.45,5,1014.51,28.7,0,309009,17:25:43:228
-0.0585,-0.0071,0.0268,42.45,5,1014.48,28.7,0,310010,17:25:44:229
-0.0155,0.0107,0.0375,42.45,5,1014.52,28.7,0,311009,17:25:45:228
0.0132,-0.0172,-0.059,42.45,5,1014.54,28.7,0,312009,17:25:46:228
-0.0158,-0.0043,0.0436,42.45,5,1014.54,28.7,0,313009,17:25:47:228
-0.0358,-1.00E-04,0.0248,42.45,5,1014.53,28.7,0,314009,17:25:48:228
-0.0223,-0.0128,0.0032,42.45,5,1014.54,28.7,0,315010,17:25:49:229
0.0125,0.0278,-0.0827,42.45,5,1014.53,28.7,0,316009,17:25:50:228
-0.0016,0.007,0.0199,42.45,5,1014.51,28.7,0,317009,17:25:51:228
1.00E-04,-0.0107,-0.0513,42.45,5,1014.51,28.7,0,318009,17:25:52:228
0.0208,-0.0174,0.0525,42.45,5,1014.53,28.7,0,319009,17:25:53:228
-0.0041,-0.0261,-0.0298,42.45,5,1014.53,28.7,0,320009,17:25:54:228
0.028,0.0421,0.054,42.45,5,1014.52,28.7,0,321009,17:25:55:228
-0.0713,-0.0176,-0.0436,42.45,5,1014.56,28.6,0,322012,17:25:56:231
0.0071,0.073,0.0064,42.45,5,1014.54,28.6,0,323009,17:25:57:228
0.0037,0.0491,0.0268,42.45,5,1014.54,28.6,0,324010,17:25:58:229
0.0026,0.0141,0.023,42.45,5,1014.54,28.6,0,325009,17:25:59:228
-5.00E-04,0.0496,0.0559,42.45,5,1014.54,28.6,0,326009,17:26:00:228
-0.0084,-0.0288,0.0265,42.45,5,1014.68,28.6,0,327009,17:26:01:228
0.0446,-0.0213,-0.0959,42.45,5,1014.64,28.7,0,328009,17:26:02:228
0.0139,-0.0137,0.0571,42.45,5,1014.63,28.7,0,329009,17:26:03:228
-0.0029,-0.0168,0.0217,42.45,5,1014.6,28.7,0,330009,17:26:04:228
-0.0346,0.026,0.0504,42.45,5,1014.59,28.7,0,331009,17:26:05:228
0.0178,0.0107,0.0343,42.45,5,1014.57,28.6,0,332009,17:26:06:228
0.0199,-0.0124,0.015,42.45,5,1014.57,28.7,0,333009,17:26:07:228
-0.0305,-0.0191,-0.0017,42.45,5,1014.59,28.6,0,334009,17:26:08:228
-0.0241,0.0492,-0.0122,42.45,5,1014.59,28.6,0,335010,17:26:09:229
2.00E-04,0.0364,-0.0026,42.45,5,1014.58,28.6,0,336009,17:26:10:228
0.0057,0.0033,0.0028,42.45,5,1014.59,28.6,0,337009,17:26:11:228
-0.0014,-0.0098,0.0709,42.45,5,1014.58,28.6,0,338009,17:26:12:228
-0.0319,-0.0425,0.0173,42.45,5,1014.58,28.6,0,339009,17:26:13:228
-0.034,-0.0098,-0.0197,42.45,5,1014.57,28.6,0,340009,17:26:14:228
-0.0408,-0.0272,0.0047,42.45,5,1014.58,28.6,0,341009,17:26:15:228
0.03,0.0387,0.0478,42.45,5,1014.57,28.6,0,342009,17:26:16:228
-0.0026,-0.0481,-0.0082,42.45,5,1014.59,28.6,0,343009,17:26:17:228
-0.0168,-0.0448,-0.1039,42.45,5,1014.59,28.6,0,344009,17:26:18:228
-6.00E-04,-0.013,-0.0136,42.45,5,1014.57,28.6,0,345009,17:26:19:228
-0.045,0.0292,0.0346,42.45,5,1014.56,28.6,0,346009,17:26:20:228
0.064,0.0094,-0.0057,42.45,5,1014.52,28.6,0,347009,17:26:21:228
-0.0152,-0.0607,0.0432,42.45,5,1014.53,28.6,0,348009,17:26:22:228
-0.0606,-0.0233,-0.0531,42.45,5,1014.54,28.6,0,349009,17:26:23:228
-0.0078,-0.0113,-0.0173,42.45,5,1014.54,28.6,0,350009,17:26:24:228
-0.0449,0.0321,0.0333,42.45,5,1014.51,28.6,0,351009,17:26:25:228
0.0611,-0.0118,0.0218,42.45,5,1014.54,28.6,0,352009,17:26:26:228
-0.0738,0.0126,-0.1103,42.45,5,1014.51,28.6,0,353009,17:26:27:228
0.0303,0.0267,0.0501,42.45,5,1014.5,28.6,0,354009,17:26:28:228
0.0503,-0.0236,0.0115,42.45,5,1014.49,28.6,0,355009,17:26:29:228
0.0011,-0.0023,0.0139,42.45,5,1014.49,28.6,0,356009,17:26:30:228
0.0524,-0.0119,-0.0365,42.45,5,1014.5,28.6,0,357009,17:26:31:228
0.0389,0.0143,0.0525,42.45,5,1014.51,28.6,0,358010,17:26:32:229
0.0288,0.0033,0.1166,42.45,5,1014.51,28.6,0,359009,17:26:33:228
0.0011,-0.0198,0.035,42.45,5,1014.51,28.6,0,360009,17:26:34:228
-0.0251,0.0109,-0.0794,42.45,5,1014.51,28.6,0,361009,17:26:35:228
0.0098,-0.0108,-0.0254,42.45,5,1014.53,28.6,0,362009,17:26:36:228
-0.0284,-0.0092,-0.0224,42.45,5,1014.51,28.6,0,363009,17:26:37:228
-0.0458,-0.0033,0.0515,42.45,5,1014.54,28.5,0,364009,17:26:38:228
-0.0435,-0.0238,0.0422,42.45,5,1014.54,28.6,0,365009,17:26:39:228
0.047,0.032,0.0323,42.45,5,1014.53,28.5,0,366009,17:26:40:228
0.0144,-0.0301,-0.0223,42.45,5,1014.55,28.5,0,367009,17:26:41:228
0.0022,-0.0043,0.0393,42.45,5,1014.53,28.5,0,368009,17:26:42:228
0.0317,0.0291,0.0696,42.45,5,1014.53,28.5,0,369009,17:26:43:228
6.00E-04,0.0117,-0.022,42.45,5,1014.56,28.5,0,370009,17:26:44:228
-0.0275,0.0236,0.0278,42.45,5,1014.54,28.5,0,371009,17:26:45:228
-0.0187,-0.0066,-0.031,42.45,5,1014.54,28.5,0,372009,17:26:46:228
-0.0927,-0.0479,-0.076,42.45,5,1014.53,28.5,0,373009,17:26:47:228
0.0886,-0.0073,-0.01,42.45,5,1014.53,28.5,0,374009,17:26:48:228
0.0137,0.0193,0.0825,42.45,5,1014.53,28.5,0,375009,17:26:49:228
0.0179,0.014,0.0668,42.45,5,1014.53,28.5,0,376009,17:26:50:228
-0.0144,-0.1005,-0.0048,42.45,5,1014.53,28.5,0,377009,17:26:51:228
0.0102,0.0152,-0.0316,42.45,5,1014.51,28.5,0,378009,17:26:52:228
0.0086,0.0047,-0.0602,42.45,5,1014.54,28.5,0,379009,17:26:53:228
-0.0035,-0.005,-0.0486,42.45,5,1014.54,28.5,0,380009,17:26:54:228
-0.0575,-0.0133,0.0221,42.45,5,1014.53,28.5,0,381009,17:26:55:228
0.0472,0.0385,0.0477,42.45,5,1014.53,28.5,0,382009,17:26:56:228
0.0112,-0.0366,-0.0114,42.45,5,1014.53,28.5,0,383009,17:26:57:228
-0.0509,-0.0448,-0.0397,42.45,5,1014.51,28.5,0,384009,17:26:58:228
-0.0298,-0.0429,0.0017,42.45,5,1014.52,28.5,0,385010,17:26:59:229
-0.0162,0.0161,-0.095,42.45,5,1014.51,28.5,0,386009,17:27:00:228
-0.0237,0.0359,0.0372,42.45,5,1014.54,28.5,0,387009,17:27:01:228
-0.0159,0.0144,0.0212,42.45,5,1014.51,28.5,0,388009,17:27:02:228
-0.0174,-0.0138,0.081,42.45,5,1014.52,28.5,0,389009,17:27:03:228
-0.0054,0.0499,0.0139,42.45,5,1014.51,28.5,0,390009,17:27:04:228
0.008,0.0115,-0.0852,42.45,5,1014.52,28.5,0,391010,17:27:05:229
0.0343,-0.0327,-0.0546,42.45,5,1014.54,28.5,0,392010,17:27:06:229
-0.0164,-0.0614,0.0513,42.45,5,1014.55,28.5,0,393009,17:27:07:228
-0.0308,-0.008,-0.0019,42.45,5,1014.54,28.5,0,394009,17:27:08:228
-0.0414,0.0146,-0.0262,42.45,5,1014.56,28.5,0,395009,17:27:09:228
4.00E-04,-0.0236,-0.0171,42.45,5,1014.57,28.5,0,396009,17:27:10:228
-0.0066,0.0677,0.0396,42.45,5,1014.56,28.5,0,397009,17:27:11:228
-0.032,-0.0379,-0.0149,42.45,5,1014.57,28.5,0,398009,17:27:12:228
0.014,-0.0091,-0.1489,42.45,5,1014.55,28.5,0,399009,17:27:13:228
-0.0194,-0.0137,0.0698,42.45,5,1014.53,28.5,0,400009,17:27:14:228
0.0413,-0.0258,-0.0305,42.45,5,1014.55,28.5,0,401009,17:27:15:228
-0.0081,0.0159,0.023,42.45,5,1014.54,28.5,0,402009,17:27:16:228
0.0231,-0.0141,0.0694,42.45,5,1014.55,28.5,0,403010,17:27:17:229
-0.0063,-0.024,0.02,42.45,5,1014.55,28.5,0,404009,17:27:18:228
0.0087,-0.0172,-0.0517,42.45,5,1014.56,28.5,0,405009,17:27:19:228
0.0412,0.0191,-0.0762,42.45,5,1014.54,28.4,0,406010,17:27:20:229
-0.0505,0.0182,-0.043,42.45,5,1014.53,28.4,0,407009,17:27:21:228
-0.0064,-0.0234,2.00E-04,42.45,5,1014.54,28.4,0,408009,17:27:22:228
-0.015,-0.0047,0.0244,42.45,5,1014.54,28.4,0,409009,17:27:23:228
-0.0012,0.0338,-0.0153,42.45,5,1014.56,28.4,0,410009,17:27:24:228
-0.0581,-0.0113,0.01,42.45,5,1014.54,28.4,0,411009,17:27:25:228
0.0223,-0.0196,-0.0087,42.45,5,1014.54,28.4,0,412009,17:27:26:228
0.0258,-0.018,-0.0079,42.45,5,1014.54,28.4,0,413009,17:27:27:228
-0.0434,0.0122,0.023,42.45,5,1014.57,28.4,0,414009,17:27:28:228
-0.0269,0.0033,-0.104,42.45,5,1014.56,28.4,0,415009,17:27:29:228
-0.0184,-0.0276,0.0388,42.45,5,1014.57,28.4,0,416009,17:27:30:228
1.00E-04,-0.0269,0.0372,42.45,5,1014.59,28.4,0,417009,17:27:31:228
0.0183,0.0103,-0.0209,42.45,5,1014.74,28.4,0,418009,17:27:32:228
0.0263,-0.0279,0.0149,42.45,5,1014.69,28.4,0,419010,17:27:33:229
-0.017,0.0071,0.0108,42.45,5,1014.66,28.5,0,420009,17:27:34:228
-0.0421,0.0446,-0.0405,42.45,5,1014.64,28.5,0,421010,17:27:35:229
0.0051,-0.0098,0.0206,42.45,5,1014.61,28.5,0,422009,17:27:36:228
-0.0355,0.0049,-0.0296,42.45,5,1014.58,28.5,0,423008,17:27:37:227
0.0374,-0.0499,-0.0996,42.45,5,1014.57,28.5,0,424009,17:27:38:228
0.0408,0.0322,-0.011,42.45,5,1014.53,28.5,0,425008,17:27:39:227
0.0139,0.051,-0.0087,42.45,5,1014.53,28.5,0,426009,17:27:40:228
-0.06,-0.0263,0.0615,42.45,5,1014.54,28.5,0,427009,17:27:41:228
-0.0208,0.0123,0.0128,42.45,5,1014.51,28.5,0,428009,17:27:42:228
-0.0224,0.0189,-0.0118,42.45,5,1014.52,28.4,0,429009,17:27:43:228
-0.0418,0.0028,-0.0323,42.45,5,1014.51,28.4,0,430009,17:27:44:228
-1.00E-04,0.0319,0,42.45,5,1014.52,28.4,0,431009,17:27:45:228
-0.0162,0.0314,-0.0135,42.45,5,1014.5,28.4,0,432009,17:27:46:228
0.0273,-0.0403,-0.0168,42.45,5,1014.53,28.4,0,433010,17:27:47:229
-0.0134,0.0825,-0.0025,42.45,5,1014.52,28.4,0,434009,17:27:48:228
0.0049,-0.0262,0.0368,42.45,5,1014.53,28.4,0,435009,17:27:49:228
-0.0141,-0.0113,0.0579,42.45,5,1014.57,28.4,0,436009,17:27:50:228
0.077,0.0054,-0.0324,42.45,5,1014.54,28.4,0,437009,17:27:51:228
-0.0642,-0.0343,0.094,42.45,5,1014.53,28.4,0,438009,17:27:52:228
-0.0085,-0.0931,-0.0588,42.45,5,1014.55,28.4,0,439009,17:27:53:228
-0.0325,0.0123,-0.08,42.45,5,1014.55,28.4,0,440009,17:27:54:228
-0.0118,-0.0033,-0.0207,42.45,5,1014.57,28.4,0,441009,17:27:55:228
-0.0295,0.0218,0.0094,42.45,5,1014.57,28.4,0,442009,17:27:56:228
0.044,-0.0068,-0.0394,42.45,5,1014.55,28.4,0,443009,17:27:57:228
0.0031,0.0387,-0.0082,42.45,5,1014.55,28.4,0,444009,17:27:58:228
-0.004,-0.0691,-1.00E-04,42.45,5,1014.55,28.4,0,445010,17:27:59:229
-0.022,-0.004,-0.0038,42.45,5,1014.58,28.4,0,446009,17:28:00:228
0.0465,0.0446,0.0585,42.45,5,1014.54,28.4,0,447009,17:28:01:228
0.0371,-0.0184,-0.018,42.45,5,1014.55,28.4,0,448009,17:28:02:228
-0.0303,-0.0695,0.0268,42.45,5,1014.54,28.4,0,449010,17:28:03:229
0.0203,-0.0271,0.0849,42.45,5,1014.53,28.4,0,450009,17:28:04:228
0.0256,0.0057,0.0523,42.45,5,1014.51,28.4,0,451010,17:28:05:229
-0.0483,0.0214,-0.0266,42.45,5,1014.53,28.4,0,452009,17:28:06:228
-0.0014,0.0442,0.006,42.45,5,1014.53,28.4,0,453014,17:28:07:233
0.0208,-0.023,-0.0215,42.45,5,1014.5,28.4,0,454009,17:28:08:228
-0.0306,0.0064,-0.0133,42.45,5,1014.51,28.4,0,455009,17:28:09:228
0.0016,0.015,-0.0092,42.45,5,1014.5,28.4,0,456009,17:28:10:228
-0.0047,-0.0418,-0.0019,42.45,5,1014.51,28.4,0,457009,17:28:11:228
-0.0294,-0.0148,-0.0282,42.45,5,1014.5,28.4,0,458009,17:28:12:228
-0.0308,0.0127,-0.0362,42.45,5,1014.52,28.4,0,459009,17:28:13:228
0.0058,0.0436,0.0683,42.45,5,1014.52,28.4,0,460009,17:28:14:228
0.0862,-0.0268,0.0192,42.45,5,1014.54,28.4,0,461008,17:28:15:227
0.0079,-0.0059,-0.0448,42.45,5,1014.56,28.4,0,462010,17:28:16:229
0.0067,0.0382,0.0365,42.45,5,1014.53,28.4,0,463009,17:28:17:228
0.0015,-0.034,-7.00E-04,42.45,5,1014.51,28.4,0,464009,17:28:18:228
-0.0287,0.0109,-0.0042,42.45,5,1014.54,28.4,0,465009,17:28:19:228
0.0022,-0.0026,0.0148,42.45,5,1014.54,28.3,0,466009,17:28:20:228
-0.0314,-0.0289,0.0017,42.45,5,1014.58,28.3,0,467008,17:28:21:227
0.0434,0.0139,-0.0185,42.45,5,1014.59,28.3,0,468009,17:28:22:228
-0.0017,-0.0168,-0.0085,42.45,5,1014.6,28.4,0,469009,17:28:23:228
-0.0104,4.00E-04,0.0068,42.45,5,1014.58,28.3,0,470009,17:28:24:228
0.0446,-0.0086,0.0673,42.45,5,1014.59,28.3,0,471010,17:28:25:229
0.0193,-0.0034,0.0278,42.45,5,1014.58,28.3,0,472009,17:28:26:228
0.0408,0.0281,0.0077,42.45,5,1014.6,28.3,0,473009,17:28:27:228
0.0662,0.012,0.0316,42.45,5,1014.58,28.3,0,474009,17:28:28:228
0.0221,0.0271,-0.0287,42.45,5,1014.58,28.3,0,475009,17:28:29:228
0.043,-0.0314,0.0216,42.45,5,1014.57,28.3,0,476009,17:28:30:228
0.0188,-0.0042,0.024,42.45,5,1014.57,28.3,0,477009,17:28:31:228
-0.0134,0.0036,-0.0556,42.45,5,1014.59,28.3,0,478010,17:28:32:229
0.0142,0.0195,0.02,42.45,5,1014.57,28.3,0,479009,17:28:33:228
-0.0033,0.026,-0.0806,42.45,5,1014.6,28.3,0,480009,17:28:34:228
-0.0091,0.0239,0.0112,42.45,5,1014.58,28.3,0,481009,17:28:35:228
-0.0201,0.0041,0.0602,42.45,5,1014.61,28.3,0,482009,17:28:36:228
0.029,-0.0062,0.024,42.45,5,1014.59,28.3,0,483009,17:28:37:228
-0.0153,0.0283,-0.0506,42.45,5,1014.59,28.3,0,484009,17:28:38:228
-0.0096,-0.0406,0.0308,42.45,5,1014.58,28.3,0,485009,17:28:39:228
0.0194,0.0236,-0.0096,42.45,5,1014.56,28.3,0,486009,17:28:40:228
-0.0163,-0.0136,0.032,42.45,5,1014.59,28.3,0,487009,17:28:41:228
-0.011,-0.0047,0.012,42.45,5,1014.59,28.3,0,488009,17:28:42:228
8.00E-04,0.0143,0.06,42.45,5,1014.61,28.3,0,489009,17:28:43:228
0.0224,-0.0087,-0.0586,42.45,5,1014.61,28.3,0,490009,17:28:44:228
0.0046,-0.0295,-0.0114,42.45,5,1014.59,28.3,0,491009,17:28:45:228
-0.0431,0.009,-0.0622,42.45,5,1014.6,28.3,0,492009,17:28:46:228
-0.0453,-0.0031,-0.0365,42.45,5,1014.59,28.3,0,493009,17:28:47:228
-0.0302,-3.00E-04,0.0283,42.45,5,1014.62,28.3,0,494009,17:28:48:228
-0.021,0.0827,-0.0237,42.45,5,1014.59,28.3,0,495009,17:28:49:228
-0.0237,-0.0246,-0.0709,42.45,5,1014.58,28.3,0,496010,17:28:50:229
0.0155,-0.0194,-0.0309,42.45,5,1014.58,28.3,0,497009,17:28:51:228
0.0037,0.0075,-0.0167,42.45,5,1014.58,28.3,0,498009,17:28:52:228
-0.041,-0.0016,-0.0804,42.45,5,1014.56,28.3,0,499009,17:28:53:228
0.0309,-0.0182,-0.0238,42.45,5,1014.57,28.3,0,500009,17:28:54:228
-0.008,-0.0129,-0.0079,42.45,5,1014.57,28.3,0,501009,17:28:55:228
0.0045,-0.0079,-0.0277,42.45,5,1014.55,28.3,0,502009,17:28:56:228
-0.0357,5.00E-04,-0.0352,42.45,5,1014.56,28.3,0,503010,17:28:57:229
-0.0104,0.0436,0.0961,42.45,5,1014.56,28.3,0,504009,17:28:58:228
-0.0134,-0.019,-0.0314,42.45,5,1014.57,28.3,0,505009,17:28:59:228
-0.0013,-0.0199,-0.0055,42.45,5,1014.6,28.3,0,506009,17:29:00:228
-0.0377,-0.0132,-0.0452,42.45,5,1014.57,28.3,0,507008,17:29:01:227
-0.0116,0.0172,-0.0022,42.45,5,1014.57,28.3,0,508009,17:29:02:228
-0.0048,-0.0418,-0.0092,42.45,5,1014.57,28.3,0,509008,17:29:03:227
0.0025,0.0216,-0.0267,42.45,5,1014.57,28.3,0,510009,17:29:04:228
0.0871,-0.0327,-0.016,42.45,5,1014.59,28.3,0,511015,17:29:05:234
0.0057,-0.0108,0.0218,42.45,5,1014.6,28.3,0,512010,17:29:06:229
0.043,-0.0099,-0.0753,42.45,5,1014.58,28.3,0,513009,17:29:07:228
-0.0334,-0.0042,-0.0068,42.45,5,1014.58,28.3,0,514010,17:29:08:229
-0.0027,-0.0437,-0.0388,42.45,5,1014.59,28.3,0,515008,17:29:09:227
-0.0471,0.0234,-0.0166,42.45,5,1014.9,28.3,0,516009,17:29:10:228
0.0102,-0.0414,0.0158,42.45,5,1014.82,28.3,0,517009,17:29:11:228
-0.0051,-0.0049,0.0128,42.45,5,1014.75,28.3,0,518009,17:29:12:228
0.0109,8.00E-04,-0.0438,42.45,5,1014.7,28.3,0,519009,17:29:13:228
-0.0469,0.0317,-0.011,42.45,5,1014.64,28.3,0,520009,17:29:14:228
0.0284,-0.0127,0.0495,42.45,5,1014.63,28.3,0,521009,17:29:15:228
0.0645,-0.0329,-0.0227,42.45,5,1014.63,28.3,0,522010,17:29:16:229
-0.0308,-0.0067,-0.0319,42.45,5,1014.6,28.3,0,523009,17:29:17:228
-0.0431,-0.0148,-0.0359,42.45,5,1014.62,28.3,0,524009,17:29:18:228
0.0068,0.007,-0.0238,42.45,5,1014.59,28.3,0,525009,17:29:19:228
-0.0488,0.0022,0.0231,42.45,5,1014.58,28.3,0,526010,17:29:20:229
0.0082,0.003,-0.0369,42.45,5,1014.58,28.3,0,527009,17:29:21:228
0.0053,0.0137,-0.0704,42.45,5,1014.57,28.3,0,528009,17:29:22:228
0.0199,0.0115,-0.0151,42.45,5,1014.55,28.3,0,529009,17:29:23:228
-0.0355,0.0312,0.1071,42.45,5,1014.56,28.3,0,530009,17:29:24:228
-0.054,0.0036,-0.0134,42.45,5,1014.58,28.3,0,531009,17:29:25:228
0.0331,0.0098,0.0081,42.45,5,1014.54,28.3,0,532009,17:29:26:228
0.016,0.0111,-0.0524,42.45,5,1014.57,28.3,0,533010,17:29:27:229
0.0076,0.0018,-0.0517,42.45,5,1014.57,28.3,0,534010,17:29:28:229
0.0059,-0.0172,-0.0016,42.45,5,1014.56,28.3,0,535009,17:29:29:228
0.0273,0.0185,-0.044,42.45,5,1014.56,28.2,0,536009,17:29:30:228
-0.0428,-0.0167,-0.0361,42.45,5,1014.58,28.2,0,537009,17:29:31:228
0.0218,-0.0298,-0.0136,42.45,5,1014.59,28.2,0,538009,17:29:32:228
-0.0488,-0.0368,-0.019,42.45,5,1014.6,28.2,0,539010,17:29:33:229
0.0823,9.00E-04,-0.031,42.45,5,1014.61,28.2,0,540009,17:29:34:228
0.0367,-0.0138,0.0072,42.45,5,1014.63,28.2,0,541009,17:29:35:228
0.0413,-0.034,-0.0323,42.45,5,1014.6,28.2,0,542010,17:29:36:229
0.0253,0.0478,1.00E-04,42.45,5,1014.64,28.2,0,543009,17:29:37:228
-0.0422,0.0512,0.0302,42.45,5,1014.66,28.2,0,544012,17:29:38:231
-0.0128,-0.0175,0.0358,42.45,5,1014.65,28.2,0,545009,17:29:39:228
-0.0724,0.0109,-0.0088,42.45,5,1014.63,28.2,0,546009,17:29:40:228
-0.0126,0.0159,0.0447,42.45,5,1014.63,28.2,0,547009,17:29:41:228
-0.0328,-0.0148,0.0234,42.45,5,1014.62,28.2,0,548009,17:29:42:228
0.0707,0.0246,1.00E-04,42.45,5,1014.61,28.2,0,549009,17:29:43:228
0.0127,-0.011,-0.017,42.45,5,1014.63,28.2,0,550009,17:29:44:228
-0.0035,-0.0198,-0.0872,42.45,5,1014.62,28.2,0,551009,17:29:45:228
0.015,0.044,0.0245,42.45,5,1014.63,28.2,0,552009,17:29:46:228
-4.00E-04,-0.0217,0.0135,42.45,5,1014.62,28.2,0,553010,17:29:47:229
-0.0198,-0.0414,0.0114,42.45,5,1014.63,28.2,0,554009,17:29:48:228
0.0077,-0.0743,0.033,42.45,5,1014.66,28.2,0,555009,17:29:49:228
-0.0306,0.0044,0.0102,42.45,5,1014.67,28.2,0,556009,17:29:50:228
0.0288,-0.0589,-0.0291,42.45,5,1014.65,28.2,0,557009,17:29:51:228
0.0049,0.0096,0.004,42.45,5,1014.62,28.2,0,558009,17:29:52:228
-0.0462,0.0587,0.0919,42.45,5,1014.62,28.2,0,559009,17:29:53:228
0.013,-0.0739,0.0175,42.45,5,1014.63,28.2,0,560009,17:29:54:228
-0.0412,-0.036,0.0197,42.45,5,1014.62,28.2,0,561008,17:29:55:227
0.0193,-0.0475,-0.0387,42.45,5,1014.63,28.2,0,562009,17:29:56:228
0.0207,0.0161,0.0634,42.45,5,1014.63,28.2,0,563009,17:29:57:228
-0.0095,-8.00E-04,-0.0071,42.45,5,1014.6,28.2,0,564009,17:29:58:228
0.0246,0.0344,0.0035,42.45,5,1014.6,28.2,0,565009,17:29:59:228
-0.0595,-0.0036,-0.0041,42.45,5,1014.61,28.2,0,566009,17:30:00:228
0.0336,0.0119,-0.1127,42.45,5,1014.61,28.2,0,567009,17:30:01:228
-0.042,0.0085,0.0674,42.45,5,1014.59,28.2,0,568009,17:30:02:228
0.0542,0.0142,0.0287,42.45,5,1014.57,28.2,0,569009,17:30:03:228
0.0609,-0.0016,-0.0439,42.45,5,1014.57,28.2,0,570009,17:30:04:228
-0.0165,-0.0018,-0.0289,42.45,5,1014.59,28.2,0,571009,17:30:05:228
0.0402,-0.0113,0.046,42.45,5,1014.56,28.2,0,572009,17:30:06:228
-0.006,0.0085,-0.0111,42.45,5,1014.56,28.2,0,573009,17:30:07:228
-0.0228,0.0156,0.0123,42.45,5,1014.57,28.2,0,574009,17:30:08:228
-0.0874,-0.0271,0.039,42.45,5,1014.55,28.2,0,575008,17:30:09:227
-0.0049,0.0226,0.0028,42.45,5,1014.55,28.2,0,576009,17:30:10:228
-0.0227,-0.0113,-0.0217,42.45,5,1014.56,28.2,0,577010,17:30:11:229
-0.0177,-0.0185,-0.0473,42.45,5,1014.55,28.2,0,578010,17:30:12:229
0.0285,-0.011,-0.0335,42.45,5,1014.53,28.2,0,579009,17:30:13:228
0.0508,-0.0231,-0.0452,42.45,5,1014.52,28.2,0,580009,17:30:14:228
-0.0398,0.0458,-0.0817,42.45,5,1014.51,28.2,0,581009,17:30:15:228
8.00E-04,-0.0126,0.0642,42.45,5,1014.51,28.2,0,582009,17:30:16:228
-0.0298,0.0138,-0.0623,42.45,5,1014.51,28.2,0,583009,17:30:17:228
0.0036,-0.0077,-0.0276,42.45,5,1014.51,28.2,0,584010,17:30:18:229
-0.0487,0.0046,0.047,42.45,5,1014.51,28.1,0,585009,17:30:19:228
-0.0731,-0.0281,-0.1085,42.45,5,1014.51,28.1,0,586009,17:30:20:228
0.0072,0.0047,0.042,42.45,5,1014.51,28.1,0,587009,17:30:21:228
0.0282,0.0319,0.0975,42.45,5,1014.54,28.1,0,588009,17:30:22:228
-0.0127,-0.0078,-0.0527,42.45,5,1014.55,28.1,0,589009,17:30:23:228
0.0675,-0.0034,-0.0294,42.45,5,1014.54,28.1,0,590009,17:30:24:228
-0.0411,0.0203,0.01,42.45,5,1014.56,28.1,0,591009,17:30:25:228
-0.047,-7.00E-04,0.0285,42.45,5,1014.57,28.1,0,592009,17:30:26:228
-0.0208,-0.0053,-0.0071,42.45,5,1014.59,28.1,0,593009,17:30:27:228
-0.0086,0.0293,-0.0067,42.45,5,1014.6,28.1,0,594009,17:30:28:228
-0.0267,-0.0036,-0.0097,42.45,5,1014.6,28.1,0,595008,17:30:29:227
0.015,0.0434,0.0102,42.45,5,1014.57,28.1,0,596009,17:30:30:228
0.0099,0.0228,0.043,42.45,5,1014.6,28.1,0,597008,17:30:31:227
0.0022,0.0392,0.034,42.45,5,1014.59,28.1,0,598011,17:30:32:230
0.0164,0.0279,0.0569,42.45,5,1014.59,28.1,0,599009,17:30:33:228
-0.0571,-0.0084,-0.0031,42.45,5,1014.6,28.1,0,600009,17:30:34:228
0.0194,0.0403,-0.0704,42.45,5,1014.58,28.1,0,601009,17:30:35:228
0.0475,0.01,0.0543,42.45,5,1014.59,28.1,0,602009,17:30:36:228
-0.0231,0.004,0.0141,42.45,5,1014.58,28.1,0,603009,17:30:37:228
0.0256,0.0095,-0.0245,42.45,5,1014.61,28.1,0,604009,17:30:38:228
-0.0223,0.0438,0.0349,42.45,5,1014.59,28.1,0,605009,17:30:39:228
0.006,0.0316,0.0042,42.45,5,1014.62,28.1,0,606009,17:30:40:228
-0.0434,0.0132,-0.0107,42.45,5,1014.6,28.1,0,607010,17:30:41:229
0.0196,0.0127,-0.0028,42.45,5,1014.63,28.1,0,608009,17:30:42:228
0.0264,-0.0025,-0.0388,42.45,5,1014.6,28.1,0,609009,17:30:43:228
-0.005,0.0024,-0.0559,42.45,5,1014.61,28.1,0,610009,17:30:44:228
-0.0056,0.0152,-0.0892,42.45,5,1014.61,28.1,0,611009,17:30:45:228
-0.0013,0.0308,0.0045,42.45,5,1014.6,28.1,0,612009,17:30:46:228
0.0071,0.0418,-0.0075,42.45,5,1014.62,28.1,0,613009,17:30:47:228
-0.0183,0.0076,0.0592,42.45,5,1014.58,28.1,0,614010,17:30:48:229
0.0088,0.0273,0.0535,42.45,5,1014.61,28.1,0,615009,17:30:49:228
-0.0611,0.0259,0.0063,42.45,5,1014.6,28.1,0,616009,17:30:50:228
-0.0072,0.0204,0.0116,42.45,5,1014.59,28.1,0,617009,17:30:51:228
0.0135,-0.0084,-0.0066,42.45,5,1014.59,28.1,0,618014,17:30:52:233
-0.0268,0.0115,0.0883,42.45,5,1014.65,28.1,0,619009,17:30:53:228
-0.0014,0.0078,0.0399,42.45,5,1014.85,28.1,77.216,620010,17:30:54:229
0.022,0.0088,-0.0077,42.45,5,1014.77,28.2,44.939,621009,17:30:55:228
0.0077,0.0279,-0.0825,42.45,5,1014.68,28.2,44.491,622009,17:30:56:228
0.0385,0.0309,0.0424,42.45,5,1014.65,28.2,44.127,623009,17:30:57:228
-0.0013,-0.0061,-0.0587,42.45,5,1014.63,28.2,42.251,624009,17:30:58:228
-0.0239,0.045,0.0912,42.45,5,1014.61,28.2,43.596,625009,17:30:59:228
-0.0534,-0.0121,-0.0093,42.45,5,1014.75,28.2,43.249,626009,17:31:00:228
0.0392,-0.0543,0.0433,42.45,5,1014.73,28.2,42.255,627009,17:31:01:228
-0.0444,0.0055,0.0029,42.45,5,1014.65,28.2,43.798,628009,17:31:02:228
-8.00E-04,0.0028,0.0281,42.45,5,1014.63,28.2,44.312,629009,17:31:03:228
0.0425,-0.0127,-0.0101,42.45,5,1014.57,28.2,43.486,630009,17:31:04:228
0.0363,0.0403,-0.0105,42.45,5,1014.59,28.2,41.874,631009,17:31:05:228
-0.0193,0.0579,-0.1146,42.45,5,1014.57,28.2,43.103,632009,17:31:06:228
-0.0016,-0.0231,0.0486,42.45,5,1014.56,28.2,42.473,633009,17:31:07:228
0.009,0.0417,0.0576,42.45,5,1014.56,28.2,42.661,634009,17:31:08:228
0.0514,-0.0229,0.0437,42.45,5,1014.58,28.1,43.273,635009,17:31:09:228
-0.0273,0.0014,0.0576,42.45,5,1014.56,28.1,42.66,636009,17:31:10:228
0.0051,-0.0019,0.0023,42.45,5,1014.62,28.1,43.665,637009,17:31:11:228
0.0149,0.0228,0.0526,42.45,5,1014.88,28.1,44.001,638009,17:31:12:228
0.0427,0.035,0,42.45,5,1015.1,28.2,43.042,638890,17:31:13:109
0.0181,0.0369,-0.0169,42.45,5,1014.97,28.2,44.366,639889,17:31:14:108
-0.0448,0.0044,-0.0512,42.45,5,1014.85,28.3,42.945,640890,17:31:15:109
0.0376,0.0492,-0.0616,42.45,5,1014.77,28.2,40.978,641890,17:31:16:109
-0.0575,0.0249,0.0291,42.45,5,1014.67,28.2,40.851,642889,17:31:17:108
-0.03,0.0056,0.0186,42.45,5,1014.62,28.2,40.762,643890,17:31:18:109
-0.0465,0.0392,0.0245,42.45,5,1014.57,28.2,42.28,644890,17:31:19:109
-0.0044,0.0116,-0.0727,42.45,5,1014.52,28.2,40.318,645889,17:31:20:108
-0.0375,0.068,0.0275,42.45,5,1014.53,28.2,40.713,646889,17:31:21:108
0.0023,-0.0225,-0.0856,42.45,5,1014.52,28.2,41.815,647889,17:31:22:108
0.001,0.0127,-0.0564,42.45,5,1014.53,28.2,42.02,648889,17:31:23:108
-0.0067,0.0024,0.0019,42.45,5,1014.53,28.2,42.686,649890,17:31:24:109
-0.003,0.0044,-0.0392,42.45,5,1014.53,28.2,39.289,650890,17:31:25:109
0.0116,0.0362,0.001,42.45,5,1014.54,28.2,42.947,651889,17:31:26:108
0.0127,-0.0105,-0.0073,42.45,5,1014.54,28.2,42.532,652890,17:31:27:109
-0.0652,0.0041,0.039,42.45,5,1014.52,28.2,42.33,653890,17:31:28:109
0.0597,-0.0119,0.0356,42.45,5,1014.56,28.2,42.675,654891,17:31:29:110
-0.0187,-0.007,0.0322,42.45,5,1014.53,28.2,41.702,655889,17:31:30:108
-0.0065,-0.0016,0.0456,42.45,5,1014.54,28.1,40.445,656889,17:31:31:108
-0.0149,0.0222,-0.0092,42.45,5,1014.53,28.1,39.957,657890,17:31:32:109
0.037,0.0605,0.0544,42.45,5,1014.55,28.1,42.045,658890,17:31:33:109
0.0209,-0.0592,0.0094,42.45,5,1014.55,28.1,40.556,659890,17:31:34:109
0.0225,-0.0161,-0.0309,42.45,5,1014.53,28.1,42.343,660890,17:31:35:109
0.0159,-0.0028,-0.0244,42.45,5,1014.54,28.1,41.111,661889,17:31:36:108
0.0487,0.0156,0.0284,42.45,5,1014.56,28.1,40.791,662889,17:31:37:108
0.0076,0.0049,0.0385,42.45,5,1014.55,28.1,39.983,663889,17:31:38:108
-0.0405,-0.0146,0.0633,42.45,5,1014.55,28.1,37.967,664890,17:31:39:109
-0.0074,0.0435,0.0202,42.45,5,1014.54,28.1,43.133,665889,17:31:40:108
0.0415,-0.0501,-0.0595,42.45,5,1014.54,28.1,42.517,666890,17:31:41:109
0.0117,-0.0043,0.0433,42.45,5,1014.55,28.1,40.145,667889,17:31:42:108
-0.0479,0.0264,0.0717,42.45,5,1014.55,28.1,41.296,668890,17:31:43:109
0.0219,0.0785,0.0083,42.45,5,1014.56,28.1,42.743,669889,17:31:44:108
0.0904,0.0355,0.0094,42.45,5,1014.57,28.1,42.373,670889,17:31:45:108
0.0124,-0.0592,0.0106,42.45,5,1014.57,28.1,44.208,671890,17:31:46:109
-0.0173,0.0559,-0.001,42.45,5,1014.57,28.1,42.418,672889,17:31:47:108
-0.0292,-0.0568,0.0265,42.45,5,1014.59,28.1,45.988,673889,17:31:48:108
-0.0116,-0.0189,-0.0435,42.45,5,1014.6,28.1,43.072,674889,17:31:49:108
0.0369,0.0258,0.0351,42.45,5,1014.59,28.1,40.349,675890,17:31:50:109
-0.0498,-0.0265,5.00E-04,42.45,5,1014.6,28.1,42.622,676889,17:31:51:108
-0.0661,0.0219,-0.0534,42.45,5,1014.58,28.1,43.965,677889,17:31:52:108
0.0589,0.0127,0.0069,42.45,5,1014.8,28.1,42.243,678889,17:31:53:108
-0.0319,-0.0623,-0.0201,42.45,5,1014.77,28.1,41.363,679889,17:31:54:108
0.0257,0.0568,0.0441,42.45,5,1014.71,28.1,44.16,680890,17:31:55:109
-0.034,-0.0062,0.0619,42.45,5,1014.65,28.1,44.472,681889,17:31:56:108
-0.0117,0.012,-0.0068,42.45,5,1014.64,28.1,44.669,682889,17:31:57:108
-0.0173,-0.0214,0.0188,42.45,5,1014.65,28.1,46.1,683889,17:31:58:108
0.0029,0.0287,-0.0882,42.45,5,1014.65,28.1,43.287,684890,17:31:59:109
5.00E-04,0.0339,0.0811,42.45,5,1014.61,28.1,44.753,685889,17:32:00:108
0.07,0.0092,-0.0202,42.45,5,1014.59,28.1,44.975,686889,17:32:01:108
-0.014,0.0392,0.061,42.45,5,1014.59,28.1,45.618,687889,17:32:02:108
-0.0517,0.013,0.0223,42.45,5,1014.57,28.1,44.842,688889,17:32:03:108
-0.0093,0.0454,0.062,42.45,5,1014.56,28.1,43.201,689889,17:32:04:108
-0.0478,-0.0227,-0.0092,42.45,5,1014.6,28.1,44.31,690890,17:32:05:109
-0.0234,-0.0226,-0.0543,42.45,5,1014.57,28.1,45.67,691889,17:32:06:108
0.0427,0.0024,-0.023,42.45,5,1014.58,28.1,52.758,692889,17:32:07:108
0.0634,-0.0216,-0.0297,42.45,5,1014.56,28.1,44.012,693889,17:32:08:108
-0.0334,0.05,0.032,42.45,5,1014.59,28.1,44.281,694889,17:32:09:108
0.0384,-0.0041,0.0868,42.45,5,1014.6,28.1,45.039,695889,17:32:10:108
0.0923,0.0069,-0.0658,42.45,5,1014.57,28.1,44.678,696889,17:32:11:108
-0.0378,0.0323,-4.00E-04,42.45,5,1014.59,28.1,44.071,697889,17:32:12:108
-0.0324,0.0874,-0.0158,42.45,5,1014.59,28.1,44.365,698889,17:32:13:108
-0.0292,2.00E-04,-0.0034,42.45,5,1014.59,28.1,44.292,699889,17:32:14:108
0.0622,0.0204,0.0279,42.45,5,1014.58,28,44.222,700889,17:32:15:108
-0.0208,0.0012,-0.0081,42.45,5,1014.59,28.1,43.443,701889,17:32:16:108
-0.0375,-0.0263,-0.0041,42.45,5,1014.57,28,44.2,702889,17:32:17:108
0.0605,-0.0075,0.0174,42.45,5,1014.6,28,44.08,703889,17:32:18:108
0.0171,-0.0056,-0.0045,42.45,5,1014.6,28,43.74,704890,17:32:19:109
-0.0551,-0.0564,-0.0973,42.45,5,1014.59,28,42.612,705889,17:32:20:108
-0.0069,-0.0514,0.015,42.45,5,1014.62,28,44.196,706890,17:32:21:109
0.0159,-0.0115,-0.0572,42.45,5,1014.62,28,45.84,707889,17:32:22:108
-0.0655,0.0143,0.0268,42.45,5,1014.61,28,45.368,708889,17:32:23:108
-0.0193,-0.0026,-0.0695,42.45,5,1014.61,28,41.38,709889,17:32:24:108
0.0037,-0.0091,0.04,42.45,5,1014.63,28,43.373,710889,17:32:25:108
0.009,-0.0656,-0.0779,42.45,5,1014.66,28,40.762,711890,17:32:26:109
0.017,0.0244,0.054,42.45,5,1014.63,28,44.218,712889,17:32:27:108
0.0527,0.0307,0.0198,42.45,5,1014.63,28,43.745,713890,17:32:28:109
-0.0426,-0.0227,0.042,42.45,5,1014.63,28,39.218,714889,17:32:29:108
-0.0034,0.0118,-0.0563,42.45,5,1014.61,28,39.826,715889,17:32:30:108
0.0154,0.0172,-0.0038,42.45,5,1014.63,28,41.144,716889,17:32:31:108
-0.0109,0.0082,0.0258,42.45,5,1014.75,28,40.853,717889,17:32:32:108
-0.003,-0.0099,-0.0342,42.45,5,1014.72,28,42.518,718889,17:32:33:108
0.045,-0.0044,-0.0493,42.45,5,1014.73,28,41.445,719889,17:32:34:108
0.0093,0.0318,-0.0553,42.45,5,1014.69,28,41.098,720889,17:32:35:108
0.0082,-0.0468,-0.0262,42.45,5,1014.68,28,40.067,721889,17:32:36:108
0.0129,0.0287,0.0346,42.45,5,1014.69,28,38.943,722889,17:32:37:108
0.0189,-0.0403,-0.0415,42.45,5,1014.7,28,40.417,723889,17:32:38:108
0.0381,-0.0127,-0.0254,42.45,5,1014.68,28,36.909,724889,17:32:39:108
-0.0306,0.0431,0.0672,42.45,5,1014.66,28,42.019,725889,17:32:40:108
0.0626,-0.022,-0.0101,42.45,5,1014.63,28,43.588,726889,17:32:41:108
0.0325,-0.0185,0.048,42.45,5,1014.63,28,42.265,727889,17:32:42:108
0.0182,-0.0194,-0.0114,42.45,5,1014.64,28,42.605,728890,17:32:43:109
0.0676,0.0177,0.0294,42.45,5,1014.62,28,39.128,729889,17:32:44:108
0.0198,-0.0311,0.0471,42.45,5,1014.62,28,40.041,730890,17:32:45:109
-0.0111,-0.0065,-0.0181,42.45,5,1014.63,28,42.667,731889,17:32:46:108
-0.0107,0.0142,0.0505,42.45,5,1014.63,28,40.99,732889,17:32:47:108
-0.0106,-0.0387,0.0468,42.45,5,1014.62,28,42.816,733889,17:32:48:108
0.0491,-0.0333,0.0238,42.45,5,1014.6,28,42.446,734889,17:32:49:108
-0.0077,-0.0018,-0.0491,42.45,5,1014.63,28,43.465,735889,17:32:50:108
-0.009,0.0257,0.0412,42.45,5,1014.61,28,41.861,736889,17:32:51:108
5.00E-04,9.00E-04,-0.0646,42.45,5,1014.61,28,42.317,737889,17:32:52:108
0.0291,0.0382,0.0395,42.45,5,1014.64,28,43.094,738890,17:32:53:109
0.0641,0.0537,0.0413,42.45,5,1014.62,28,41.03,739889,17:32:54:108
-0.0304,0.0399,0.0625,42.45,5,1014.63,28,43.747,740890,17:32:55:109
0.0029,-0.03,0.0727,42.45,5,1014.64,28,39.232,741889,17:32:56:108
0.0843,0.0155,-0.0265,42.45,5,1014.65,28,43.582,742889,17:32:57:108
-0.0086,0.0054,0.0176,42.45,5,1014.65,28,44.365,743890,17:32:58:109
-0.0151,-0.0378,-0.0017,42.45,5,1014.63,28,43.33,744889,17:32:59:108
0.044,-3.00E-04,0.0236,42.45,5,1014.65,28,42.158,745889,17:33:00:108
0.0206,0.0456,-0.0292,42.45,5,1014.63,28,43.109,746889,17:33:01:108
0.0463,-0.0062,0.0247,42.45,5,1014.64,28,43.979,747889,17:33:02:108
0.0278,0.0174,0.0067,42.45,5,1014.64,28,44.037,748889,17:33:03:108
-0.0044,0.0012,-0.007,42.45,5,1014.6,27.9,43.235,749889,17:33:04:108
-0.0096,-0.0232,0.0176,42.45,5,1014.67,28,39.381,750889,17:33:05:108
0.0399,0.0433,-0.0486,42.45,5,1014.67,27.9,43.402,751889,17:33:06:108
-0.0076,-0.0215,-0.027,42.45,5,1014.65,27.9,46.059,752889,17:33:07:108
-0.0063,-0.032,0.029,42.45,5,1014.65,27.9,47.127,753889,17:33:08:108
0.0333,0.0117,-0.0066,42.45,5,1015.14,28,42.195,754889,17:33:09:108
-0.0019,-0.0427,0.015,42.45,5,1015.17,28,43.435,755889,17:33:10:108
0.0029,-6.00E-04,-0.0445,42.45,5,1015,28.1,46.731,756889,17:33:11:108
-0.0402,-0.0275,0.041,42.45,5,1014.87,28.1,45.364,757889,17:33:12:108
0.0279,-0.02,0.0504,42.45,5,1014.76,28.1,45.576,758888,17:33:13:107
-0.0335,0.0014,-0.0587,42.45,5,1014.7,28.1,41.723,759889,17:33:14:108
-0.0729,-0.0281,0.0117,42.45,5,1014.66,28.1,43.494,760889,17:33:15:108
-0.057,0.0167,0.0743,42.45,5,1014.61,28.1,45.325,761889,17:33:16:108
0.0133,0.0122,-0.0352,42.45,5,1014.62,28.1,43.199,762889,17:33:17:108
-0.0218,0.0218,-0.0149,42.45,5,1014.56,28,44.903,763889,17:33:18:108
0.0316,0.0202,-0.0412,42.45,5,1014.56,28,46.063,764890,17:33:19:109
-0.0444,0.0593,0.0417,42.45,5,1014.56,28,45.28,765889,17:33:20:108
-0.0368,-0.0137,-0.008,42.45,5,1014.54,28,43.208,766889,17:33:21:108
2.00E-04,0.0071,-0.061,42.45,5,1014.54,28,43.986,767889,17:33:22:108
0.0074,0.0195,0.0192,42.45,5,1014.53,28,45.263,768889,17:33:23:108
-0.0181,0.0105,0.0138,42.45,5,1014.56,28,43.928,769890,17:33:24:109
-0.0299,-0.0576,0.0086,42.45,5,1014.55,28,45.579,770889,17:33:25:108
0.0339,-0.0027,-0.0277,42.45,5,1014.55,28,42.115,771889,17:33:26:108
0.0123,0.0091,-0.0352,42.45,5,1014.55,28,43.527,772889,17:33:27:108
0.0032,3.00E-04,-0.0628,42.45,5,1014.56,28,45.091,773889,17:33:28:108
0.0058,0.0177,0.0621,42.45,5,1014.57,28,45.86,774889,17:33:29:108
-0.0088,-0.0417,-1.00E-04,42.45,5,1014.59,28,43.91,775889,17:33:30:108
0.0022,0.0534,-0.0601,42.45,5,1014.59,28,44.752,776889,17:33:31:108
-0.0846,0.0223,-0.0063,42.45,5,1014.61,28,44.727,777889,17:33:32:108
0.0328,-0.0134,0.051,42.45,5,1014.64,28,45.013,778890,17:33:33:109
-0.002,-0.0011,0.068,42.45,5,1014.6,28,47.441,779889,17:33:34:108
0.0488,-0.0428,0.0704,42.45,5,1014.62,28,46.388,780889,17:33:35:108
0.0044,-0.0076,-0.0765,42.45,5,1014.61,27.9,44.335,781890,17:33:36:109
0.0176,0.0574,-0.0308,42.45,5,1014.63,27.9,42.085,782890,17:33:37:109
-0.0125,0.0237,-0.0015,42.45,5,1014.64,27.9,43.348,783889,17:33:38:108
-0.0388,0.0065,0.0031,42.45,5,1014.61,27.9,44.092,784889,17:33:39:108
-0.015,0.0123,-0.0084,42.45,5,1014.62,27.9,45.337,785889,17:33:40:108
0.0439,-0.0191,-0.0303,42.45,5,1014.66,27.9,46.32,786889,17:33:41:108
-0.0368,0.0089,-0.0447,42.45,5,1014.64,27.9,46.725,787889,17:33:42:108
8.00E-04,-0.0402,0.0024,42.45,5,1014.65,27.9,44.939,788891,17:33:43:110
0.065,-0.0202,-0.0773,42.45,5,1014.68,27.9,37.621,789889,17:33:44:108
0.0242,-3.00E-04,0.0335,42.45,5,1014.65,27.9,39.822,790889,17:33:45:108
0.0028,0.0375,0.0403,42.45,5,1014.66,27.9,43.802,791891,17:33:46:110
0.0298,0.0204,-0.0067,42.45,5,1014.66,27.9,39.487,792889,17:33:47:108
-0.0027,0.0116,0.0672,42.45,5,1014.64,27.9,42.214,793889,17:33:48:108
-0.0439,-0.005,-0.0262,42.45,5,1014.65,27.9,42.254,794889,17:33:49:108
0.0027,0.0197,0.0264,42.45,5,1014.63,27.9,37.095,795889,17:33:50:108
-0.0183,0.0255,0.0108,42.45,5,1014.64,27.9,35.957,796889,17:33:51:108
-0.0275,-0.0013,-0.0246,42.45,5,1014.64,27.9,35.19,797889,17:33:52:108
0.0191,0.0252,0.0201,42.45,5,1014.65,27.9,35.057,798889,17:33:53:108
-0.0108,0.0414,-0.0067,42.45,5,1014.66,27.9,35.284,799888,17:33:54:107
-0.0304,0.0192,0.0346,42.45,5,1014.67,27.9,36.178,800890,17:33:55:109
-0.0659,0.0027,-0.0227,42.45,5,1014.63,27.9,35.875,801892,17:33:56:111
-1.00E-04,-0.0704,-0.0068,42.45,5,1014.65,27.9,39.141,802889,17:33:57:108
0.0132,0.0459,0.048,42.45,5,1014.65,27.9,38.768,803889,17:33:58:108
-0.0491,-0.0015,0.009,42.45,5,1014.67,27.9,41.452,804889,17:33:59:108
-0.041,0.0406,0.0408,42.45,5,1014.7,27.9,42.056,805889,17:34:00:108
0.0277,0.0239,-0.072,42.45,5,1014.7,27.9,39.714,806889,17:34:01:108
-0.0509,-2.00E-04,0.0232,42.45,5,1014.7,27.9,38.764,807889,17:34:02:108
0.0063,0.0182,-0.0361,42.45,5,1014.7,27.9,41.794,808889,17:34:03:108
-0.0191,0.0085,-0.0151,42.45,5,1014.71,27.9,40.773,809890,17:34:04:109
-0.0348,0.051,0.0061,42.45,5,1014.71,27.9,38.935,810889,17:34:05:108
0.0628,-0.0203,-0.0177,42.45,5,1014.72,27.9,42.647,811889,17:34:06:108
-0.0148,0.0085,-0.0126,42.45,5,1014.7,27.9,42.176,812889,17:34:07:108
0.0367,-0.0033,0.0479,42.45,5,1014.7,27.9,44.995,813889,17:34:08:108
0.0359,-0.0157,-0.0398,42.45,5,1014.7,27.9,39.749,814889,17:34:09:108
-0.002,0.0442,0.0075,42.45,5,1014.71,27.9,35.881,815890,17:34:10:109
0.0389,-0.0112,0.0029,42.45,5,1014.7,27.8,44.183,816889,17:34:11:108
-0.0129,0.0095,0.0176,42.45,5,1014.72,27.8,44.499,817889,17:34:12:108
-0.021,-0.0093,-0.0319,42.45,5,1014.71,27.8,43.195,818889,17:34:13:108
-0.0025,-0.0148,0.0214,42.45,5,1014.7,27.8,44.465,819889,17:34:14:108
-0.0489,0.0188,-0.0298,42.45,5,1014.72,27.8,47.127,820889,17:34:15:108
-0.0374,-0.0062,-0.0106,42.45,5,1014.7,27.8,44.918,821889,17:34:16:108
0.054,0.0265,-0.0117,42.45,5,1014.71,27.8,46.852,822889,17:34:17:108
-0.0012,0.0369,0.0704,42.45,5,1014.7,27.8,45.437,823889,17:34:18:108
9.00E-04,-0.0447,-0.0564,42.45,5,1014.68,27.8,43.997,824890,17:34:19:109
0.013,-0.0285,0.0523,42.45,5,1014.69,27.8,45.844,825890,17:34:20:109
-0.0526,0.0125,-0.0225,42.45,5,1014.67,27.8,34.52,826889,17:34:21:108
0.0576,-2.00E-04,0.0369,42.45,5,1014.69,27.8,33.633,827889,17:34:22:108
2.00E-04,-0.0261,0.0106,42.45,5,1014.69,27.8,33.587,828889,17:34:23:108
0.0353,0.0173,0.0234,42.45,5,1014.66,27.8,34.872,829890,17:34:24:109
0.0068,-0.0167,-0.0619,42.45,5,1014.67,27.8,32.961,830889,17:34:25:108
-0.0211,-0.0045,0.0059,42.45,5,1014.68,27.8,33.815,831889,17:34:26:108
-0.0067,0.0085,-0.0733,42.45,5,1014.67,27.8,33.883,832889,17:34:27:108
-0.0442,0.0255,-0.074,42.45,5,1014.67,27.8,33.793,833889,17:34:28:108
0.0129,-0.0285,0.0634,42.45,5,1014.69,27.8,33.311,834889,17:34:29:108
-0.002,-0.0043,0.0103,42.45,5,1014.67,27.8,34.781,835889,17:34:30:108
-0.0066,-0.0341,-0.0327,42.45,5,1014.67,27.8,32.024,836890,17:34:31:109
0.0351,0.0399,-0.033,42.45,5,1014.67,27.8,35.946,837889,17:34:32:108
0.0343,0.0134,0.0253,42.45,5,1014.67,27.8,34.128,838889,17:34:33:108
-0.0035,-0.0115,0.002,42.45,5,1014.68,27.8,35.029,839890,17:34:34:109
-0.012,0.0158,0.0441,42.45,5,1014.68,27.8,34.724,840889,17:34:35:108
-0.0298,-0.0032,0.0213,42.45,5,1014.69,27.8,33.623,841889,17:34:36:108
-0.0257,0.027,0.0105,42.45,5,1014.71,27.8,35.526,842889,17:34:37:108
-0.0373,-0.0459,0.0242,42.45,5,1014.69,27.8,36.856,843889,17:34:38:108
0.0136,0.0177,-0.0857,42.45,5,1014.72,27.8,32.994,844889,17:34:39:108
-0.0326,0.0294,0.052,42.45,5,1014.68,27.8,43.378,845889,17:34:40:108
0.0074,-0.046,0.0643,42.45,5,1014.68,27.8,45.608,846890,17:34:41:109
0.0403,0.0028,0.0383,42.45,5,1014.68,27.8,46.306,847889,17:34:42:108
0.0298,-0.0075,-0.0092,42.45,5,1014.69,27.8,46.801,848889,17:34:43:108
-0.0224,-0.065,-0.0275,42.45,5,1014.7,27.8,43.347,849889,17:34:44:108
0.031,0.026,0.0098,42.45,5,1014.7,27.8,46.302,850889,17:34:45:108
-0.0658,0.0136,-0.0895,42.45,5,1014.71,27.8,43.458,851889,17:34:46:108
0.0188,0.0158,0.091,42.45,5,1014.7,27.8,43.602,852889,17:34:47:108
0.0503,-0.0218,-0.0538,42.45,5,1014.7,27.8,42.649,853889,17:34:48:108
-0.0065,0.0239,-0.0394,42.45,5,1014.72,27.8,44.125,854889,17:34:49:108
0.0305,-0.0107,0.028,42.45,5,1014.72,27.8,44.932,855889,17:34:50:108
0.043,-0.0042,-0.1146,42.45,5,1014.7,27.8,44.516,856889,17:34:51:108
0.0436,0.0335,0.0464,42.45,5,1014.71,27.8,44.131,857889,17:34:52:108
0.0237,0.0296,0.0164,42.45,5,1014.74,27.8,44.114,858889,17:34:53:108
-0.0391,-0.0202,-0.0175,42.45,5,1014.72,27.8,45.915,859889,17:34:54:108
0.0642,-0.0293,0.0292,42.45,5,1014.72,27.8,44.672,860889,17:34:55:108
0.0495,-0.0281,-0.0152,42.45,5,1014.69,27.8,47.818,861889,17:34:56:108
-5.00E-04,-0.0146,-0.0183,42.45,5,1014.71,27.8,45.871,862889,17:34:57:108
-0.0092,0.0026,-0.0188,42.45,5,1014.73,27.8,44.162,863889,17:34:58:108
0.0384,0.0306,-0.0273,42.45,5,1014.73,27.8,43.597,864889,17:34:59:108
-0.024,0.0544,-0.0015,42.45,5,1014.71,27.8,42.386,865889,17:35:00:108
-0.0082,-0.0527,-0.1062,42.45,5,1014.73,27.8,42.166,866889,17:35:01:108
0.0412,-0.0047,-0.0188,42.45,5,1014.71,27.8,43.701,867889,17:35:02:108
-0.0098,-0.007,0.0641,42.45,5,1014.71,27.8,44.006,868889,17:35:03:108
0.0161,0.0013,-0.0034,42.45,5,1014.7,27.8,46.19,869890,17:35:04:109
0.01,-0.0057,0.0067,42.45,5,1014.7,27.8,45.652,870889,17:35:05:108
0.0026,0.0101,0.0229,42.45,5,1014.71,27.8,43.525,871889,17:35:06:108
0.0028,0.0187,-0.0233,42.45,5,1014.71,27.8,42.448,872889,17:35:07:108
8.00E-04,0.0052,0.0126,42.45,5,1014.71,27.8,41.957,873889,17:35:08:108
0.0148,-0.0151,0.0177,42.45,5,1014.68,27.8,44.545,874890,17:35:09:109
0.0213,-0.0177,0.0348,42.45,5,1014.66,27.7,41.765,875889,17:35:10:108
-0.0032,0.0177,-0.0251,42.45,5,1014.69,27.8,45.405,876889,17:35:11:108
-5.00E-04,0.0213,0.0229,42.45,5,1014.68,27.7,45.908,877889,17:35:12:108
-0.0422,0.0381,-0.0258,42.45,5,1014.69,27.7,42.309,878890,17:35:13:109
-0.011,-0.0297,0.0055,42.45,5,1014.67,27.7,42.714,879889,17:35:14:108
0.0184,0.0157,-0.0223,42.45,5,1014.68,27.7,46.327,880889,17:35:15:108
0.0162,-0.0367,0.0198,42.45,5,1014.68,27.7,44.55,881889,17:35:16:108
0.0092,-0.0487,-0.0644,42.45,5,1014.7,27.7,43.044,882889,17:35:17:108
-0.0176,-0.0123,0.0243,42.45,5,1014.71,27.7,41.956,883889,17:35:18:108
0.0388,-0.0279,6.00E-04,42.45,5,1014.71,27.7,44.892,884889,17:35:19:108
-0.0118,-0.0153,-0.0239,42.45,5,1014.7,27.7,43.461,885889,17:35:20:108
0.022,0.0068,0.0616,42.45,5,1014.79,27.7,45.357,886889,17:35:21:108
0.0317,-0.0205,0.0806,42.45,5,1014.78,27.8,44.085,887890,17:35:22:109
0.0039,-0.0267,0.0276,42.45,5,1014.74,27.8,43.004,888889,17:35:23:108
0.0124,-0.0298,0.1269,42.45,5,1014.73,27.8,43.507,889889,17:35:24:108
-0.0204,-0.0038,0.0032,42.45,5,1014.71,27.8,43.726,890889,17:35:25:108
0.0051,-0.0051,0.0018,42.45,5,1014.69,27.8,43.261,891889,17:35:26:108
0.0615,-0.0194,0.034,42.45,5,1014.66,27.7,42.171,892889,17:35:27:108
-0.0261,0.0443,0.0469,42.45,5,1014.69,27.8,43.739,893889,17:35:28:108
-0.0582,-0.0379,-0.0578,42.45,5,1014.68,27.8,42.48,894890,17:35:29:109
0.0142,0.051,-0.0229,42.45,5,1014.71,27.7,42.063,895889,17:35:30:108
0.0409,-0.0617,-0.0323,42.45,5,1014.69,27.7,45.935,896889,17:35:31:108
-0.0395,-0.0345,0.0709,42.45,5,1014.7,27.7,42.035,897889,17:35:32:108
7.00E-04,0.0102,0.0325,42.45,5,1014.69,27.7,41.953,898889,17:35:33:108
-0.0145,0.0317,0.0125,42.45,5,1014.69,27.7,42.633,899889,17:35:34:108
-0.0492,0.0279,0.0236,42.45,5,1014.68,27.7,42.172,900890,17:35:35:109
-0.0216,-0.0037,0.0137,42.45,5,1014.71,27.7,42.974,901889,17:35:36:108
-0.0307,-0.0186,0.055,42.45,5,1014.72,27.7,44.071,902889,17:35:37:108
0.0063,-0.0375,-0.0343,42.45,5,1014.7,27.7,46.069,903889,17:35:38:108
-0.0354,0.0044,0.0281,42.45,5,1014.72,27.7,45.804,904889,17:35:39:108
-0.0081,-0.0522,-0.0826,42.45,5,1014.7,27.7,40.72,905889,17:35:40:108
-0.0082,0.0312,0.017,42.45,5,1014.71,27.7,43.646,906889,17:35:41:108
0.0099,0.0175,-0.0398,42.45,5,1014.71,27.7,41.387,907889,17:35:42:108
0.016,0.0609,0.0516,42.45,5,1014.72,27.7,44.465,908889,17:35:43:108
0.0069,0.0422,0.0956,42.45,5,1014.7,27.7,45.279,909890,17:35:44:109
0.0226,0.0049,0.0012,42.45,5,1014.69,27.7,45.493,910891,17:35:45:110
-0.0107,0.0118,-0.0078,42.45,5,1014.69,27.7,38.988,911889,17:35:46:108
-0.0274,0.0075,-0.0421,42.45,5,1014.72,27.7,42.243,912889,17:35:47:108
-0.0314,0.0162,-0.0223,42.45,5,1014.7,27.7,43.823,913894,17:35:48:113
-0.0087,0.0012,-0.021,42.45,5,1014.7,27.7,42.055,914889,17:35:49:108
-0.0605,0.0163,0.0617,42.45,5,1014.71,27.7,41.344,915889,17:35:50:108
-0.0335,-0.0711,0.0311,42.45,5,1014.69,27.7,43.276,916889,17:35:51:108
-0.0571,0.0254,0.0027,42.45,5,1014.69,27.7,44.282,917889,17:35:52:108
0.0163,-0.0531,0.0255,42.45,5,1014.68,27.7,40.552,918889,17:35:53:108
0.0153,4.00E-04,0.031,42.45,5,1014.71,27.7,43.958,919890,17:35:54:109
0.0092,0.0158,-0.0514,42.45,5,1014.7,27.7,44.522,920889,17:35:55:108
0.0276,-0.0106,0.0284,42.45,5,1014.71,27.7,43.709,921889,17:35:56:108
0.0722,0.0042,-0.0027,42.45,5,1014.72,27.7,43.015,922889,17:35:57:108
-0.0093,-0.0044,0.0221,42.45,5,1014.73,27.7,45.814,923889,17:35:58:108
-0.0069,0.0075,0.0412,42.45,5,1014.73,27.7,45.396,924889,17:35:59:108
0.0348,-0.0171,-0.0169,42.45,5,1014.71,27.7,43.272,925890,17:36:00:109
-0.0417,-0.022,0.0017,42.45,5,1014.73,27.7,44.809,926889,17:36:01:108
0.0333,-0.0416,0.014,42.45,5,1014.72,27.7,44.198,927889,17:36:02:108
-0.0076,-0.0304,-0.0753,42.45,5,1014.71,27.7,43.594,928889,17:36:03:108
0.0471,7.00E-04,-0.0389,42.45,5,1014.71,27.7,46.283,929889,17:36:04:108
-0.0068,0.0061,-0.043,42.45,5,1014.69,27.7,45.634,930889,17:36:05:108
-0.0255,-0.0052,-0.01,42.45,5,1014.69,27.7,42.162,931889,17:36:06:108
-0.0153,-0.0133,-0.028,42.45,5,1014.71,27.7,45.323,932890,17:36:07:109
5.00E-04,0.0223,-0.0119,42.45,5,1014.69,27.7,40.799,933890,17:36:08:109
0.023,-0.0419,-2.00E-04,42.45,5,1014.72,27.7,41.673,934889,17:36:09:108
0.0092,0.0053,-0.0928,42.45,5,1014.72,27.7,45.594,935889,17:36:10:108
-0.03,0.0044,-0.0337,42.45,5,1014.7,27.7,44.291,936889,17:36:11:108
-0.0038,-0.0625,-0.0179,42.45,5,1014.68,27.7,45.445,937889,17:36:12:108
0.0117,-0.001,0.003,42.45,5,1014.68,27.7,44.482,938890,17:36:13:109
0.0479,-0.0182,-0.0103,42.45,5,1014.68,27.7,45.721,939889,17:36:14:108
0.0558,0.0109,0.0083,42.45,5,1014.66,27.7,41.471,940889,17:36:15:108
0.0031,0.0146,0.0268,42.45,5,1014.69,27.7,41.781,941889,17:36:16:108
-0.0019,0.0079,-0.0686,42.45,5,1014.69,27.7,44.091,942889,17:36:17:108
0.0177,-0.024,-0.0227,42.45,5,1014.7,27.7,42.631,943890,17:36:18:109
-0.0115,0.0336,0.0581,42.45,5,1014.7,27.7,45.143,944889,17:36:19:108
-0.0071,0.0107,-0.0013,42.45,5,1014.7,27.7,47.98,945889,17:36:20:108
-0.018,-0.0361,-0.0962,42.45,5,1014.71,27.7,42.385,946889,17:36:21:108
0.0501,-0.0435,0.0485,42.45,5,1014.71,27.7,42.814,947889,17:36:22:108
-0.0377,0.0114,-0.0219,42.45,5,1014.7,27.7,46.976,948889,17:36:23:108
0.0308,0.057,0.0251,42.45,5,1014.7,27.7,44.647,949889,17:36:24:108
0.0348,0.0061,0.028,42.45,5,1014.68,27.7,43.734,950889,17:36:25:108
0.0533,0.0139,-0.0033,42.45,5,1014.67,27.7,41.69,951890,17:36:26:109
0.0253,-0.0614,0.0764,42.45,5,1014.65,27.7,43.897,952889,17:36:27:108
-0.0336,-0.0073,0.0565,42.45,5,1014.65,27.7,43.517,953889,17:36:28:108
0.0449,0.0074,-0.0268,42.45,5,1014.65,27.7,44.993,954890,17:36:29:109
-0.0557,0.0621,0.0288,42.45,5,1014.64,27.7,43.089,955889,17:36:30:108
-0.0074,-0.0249,-0.0138,42.45,5,1014.65,27.7,43.321,956889,17:36:31:108
-0.0137,-0.0162,-0.0097,42.45,5,1014.64,27.7,42.479,957889,17:36:32:108
0.0053,-0.0088,0.0587,42.45,5,1014.62,27.7,42.142,958889,17:36:33:108
0.0242,-0.0145,-0.0216,42.45,5,1014.64,27.7,41.321,959889,17:36:34:108
-0.0476,-0.0202,-0.0232,42.45,5,1014.63,27.7,43.029,960889,17:36:35:108
-0.0244,-0.0114,0.0014,42.45,5,1014.6,27.7,43.393,961889,17:36:36:108
0.0248,0.0169,0.0828,42.45,5,1014.61,27.7,39.557,962890,17:36:37:109
0.0476,0.0013,0.0251,42.45,5,1014.63,27.7,41.994,963889,17:36:38:108
0.0325,0.0076,0.0955,42.45,5,1014.64,27.7,43.877,964889,17:36:39:108
-0.0506,-0.0016,0.0607,42.45,5,1014.64,27.7,41.231,965889,17:36:40:108
-0.0454,0.0194,-0.0031,42.45,5,1014.64,27.7,41.275,966889,17:36:41:108
-0.0036,-0.0028,-0.0504,42.45,5,1014.67,27.7,42.504,967889,17:36:42:108
-0.0783,-0.003,-0.0201,42.45,5,1014.65,27.7,43.51,968889,17:36:43:108
0.0393,0.0169,-0.0106,42.45,5,1014.66,27.7,39.058,969889,17:36:44:108
0.0372,-0.0475,-0.0217,42.45,5,1014.65,27.6,44.179,970890,17:36:45:109
-0.0046,0.0246,0.0321,42.45,5,1014.67,27.7,45.362,971889,17:36:46:108
0.0012,-0.0089,-0.0193,42.45,5,1014.66,27.6,44.235,972889,17:36:47:108
0.0325,-0.0381,0.0486,42.45,5,1014.67,27.6,43.785,973889,17:36:48:108
-0.0048,-0.0096,0.0372,42.45,5,1014.66,27.6,45.931,974889,17:36:49:108
0.0216,0.0113,-0.0241,42.45,5,1014.63,27.6,43.534,975889,17:36:50:108
-3.00E-04,-0.0138,0.0227,42.45,5,1014.64,27.6,43.859,976889,17:36:51:108
-0.015,0.0586,0.0249,42.45,5,1014.63,27.6,43.699,977889,17:36:52:108
0.0506,0.0025,0.014,42.45,5,1014.64,27.6,44.944,978890,17:36:53:109
-0.0209,0.0148,-0.0559,42.45,5,1014.66,27.6,43.166,979889,17:36:54:108
-0.0151,-0.0047,0.0292,42.45,5,1014.64,27.6,44.32,980889,17:36:55:108
-0.0384,-0.0228,-0.0879,42.45,5,1014.66,27.6,44.673,981889,17:36:56:108
-0.0036,-0.0068,-6.00E-04,42.45,5,1014.66,27.6,45.976,982890,17:36:57:109
-0.0145,-0.0058,-0.0197,42.45,5,1014.64,27.6,45.353,983889,17:36:58:108
-0.0466,-0.0467,-0.0221,42.45,5,1014.66,27.6,45.466,984889,17:36:59:108
-0.0286,-0.0233,-0.0186,42.45,5,1014.63,27.6,50.135,985889,17:37:00:108
-0.012,0.0172,0.0377,42.45,5,1014.63,27.6,50.124,986889,17:37:01:108
-0.0125,-0.0051,-0.0645,42.45,5,1014.65,27.6,42.132,987889,17:37:02:108
0.007,-0.0126,-0.0061,42.45,5,1014.64,27.6,43.21,988889,17:37:03:108
-0.0079,-0.0206,-0.0036,42.45,5,1014.64,27.6,39.007,989889,17:37:04:108
0.0083,-0.0122,0.0462,42.45,5,1014.66,27.6,39.558,990889,17:37:05:108
0.0156,0.0271,0.0139,42.45,5,1014.65,27.6,40.895,991889,17:37:06:108
0.0325,-0.0379,0.0039,42.45,5,1014.64,27.6,35.824,992889,17:37:07:108
0.0366,-0.0274,-0.0453,42.45,5,1014.66,27.6,36.557,993890,17:37:08:109
-0.012,0.0235,0.0356,42.45,5,1014.65,27.6,36.989,994889,17:37:09:108
0.0572,0.0251,0.018,42.45,5,1014.68,27.6,38.155,995889,17:37:10:108
0.055,-0.0403,-0.0165,42.45,5,1014.69,27.6,37.343,996890,17:37:11:109
-0.0202,-0.0231,-0.0127,42.45,5,1014.69,27.6,37.15,997889,17:37:12:108
-0.0591,-0.0034,0.018,42.45,5,1014.69,27.6,36.815,998889,17:37:13:108
0.0153,0.0102,-0.0433,42.45,5,1014.67,27.6,35.27,999889,17:37:14:108
-0.0353,0.0158,1.00E-04,42.45,5,1014.69,27.6,36.028,1000889,17:37:15:108
-0.0407,-0.0094,0.0305,42.45,5,1014.68,27.6,34.896,1001889,17:37:16:108
-5.00E-04,0.0046,-0.053,42.45,5,1014.68,27.6,35.486,1002889,17:37:17:108
-0.0066,-0.0182,-0.0329,42.45,5,1014.67,27.6,37.421,1003889,17:37:18:108
0.0011,0.0127,-0.0125,42.45,5,1014.69,27.6,35.184,1004889,17:37:19:108
-0.0139,-0.0103,0.0168,42.45,5,1014.69,27.6,34.205,1005889,17:37:20:108
-0.0397,0.0015,-0.0568,42.45,5,1014.69,27.6,31.623,1006889,17:37:21:108
-0.0371,0.0238,0.0289,42.45,5,1014.71,27.6,35.122,1007889,17:37:22:108
-0.0201,-0.029,0.0203,42.45,5,1014.7,27.6,33.533,1008889,17:37:23:108
-0.0257,-0.0155,-0.024,42.45,5,1014.7,27.6,35.344,1009889,17:37:24:108
0.0024,-0.0134,0.0021,42.45,5,1014.71,27.6,33.679,1010890,17:37:25:109
0.008,0.0051,0.025,42.45,5,1014.72,27.6,34.135,1011889,17:37:26:108
0.0187,0.0607,0.0028,42.45,5,1014.7,27.6,33.648,1012889,17:37:27:108
0.0152,-0.0163,-0.0113,42.45,5,1014.71,27.6,34.295,1013890,17:37:28:109
0.0065,0.0114,0.0648,42.45,5,1014.7,27.6,33.546,1014889,17:37:29:108
-0.0247,0.0587,-0.0752,42.45,5,1014.7,27.6,33.938,1015889,17:37:30:108
0.0195,0.0056,0.0031,42.45,5,1014.7,27.6,35.863,1016889,17:37:31:108
-0.0035,-0.005,0.0144,42.45,5,1014.85,27.6,35.787,1017889,17:37:32:108
0.0387,0.024,-0.0228,42.45,5,1014.83,27.6,34.881,1018889,17:37:33:108
-0.0198,0.0166,0.0273,42.45,5,1014.77,27.6,38.139,1019889,17:37:34:108
-0.0335,0.0354,-0.0469,42.45,5,1014.75,27.6,36.03,1020889,17:37:35:108
0.0165,0.0311,0.0507,42.45,5,1014.7,27.6,34.837,1021889,17:37:36:108
-0.0056,0.0171,0.0355,42.45,5,1014.71,27.6,34.966,1022890,17:37:37:109
0.02,-0.0363,-0.0156,42.45,5,1014.69,27.6,36.6,1023889,17:37:38:108
0.0488,-0.0054,0.0249,42.45,5,1014.68,27.6,36.389,1024889,17:37:39:108
0.0225,-0.0119,0.0605,42.45,5,1014.66,27.6,37.519,1025890,17:37:40:109
-0.0035,-0.0295,-0.0322,42.45,5,1014.66,27.6,35.794,1026889,17:37:41:108
-0.0318,-0.0187,0.0664,42.45,5,1014.66,27.6,35.396,1027890,17:37:42:109
0.0187,0.0067,0.0015,42.45,5,1014.68,27.6,36.168,1028890,17:37:43:109
0.0385,6.00E-04,-0.0119,42.45,5,1014.77,27.6,35.998,1029889,17:37:44:108
0.0273,-0.0374,-0.0478,42.45,5,1014.82,27.6,35.574,1030889,17:37:45:108
-0.0072,0.0101,-0.0962,42.45,5,1014.77,27.7,35.565,1031890,17:37:46:109
-5.00E-04,-0.0383,0.0338,42.45,5,1014.75,27.7,36.578,1032889,17:37:47:108
-0.0021,-0.0024,-0.014,42.45,5,1014.72,27.7,35.968,1033889,17:37:48:108
0.004,-0.025,-0.1116,42.45,5,1014.72,27.6,36.914,1034889,17:37:49:108
-0.0529,-0.0368,0.1567,42.45,5,1014.7,27.6,36.646,1035889,17:37:50:108
-0.0399,0.067,0.0192,42.45,5,1014.7,27.6,34.592,1036889,17:37:51:108
1.00E-04,0.0097,0.0545,42.45,5,1014.68,27.6,34.182,1037889,17:37:52:108
-0.0353,0.0097,-0.0259,42.45,5,1014.7,27.6,36.169,1038889,17:37:53:108
0.014,-0.0149,-0.0014,42.45,5,1014.68,27.6,36.697,1039889,17:37:54:108
1.00E-04,-0.0314,0.0577,42.45,5,1014.7,27.6,33.401,1040889,17:37:55:108
-0.0306,0.0094,-0.0018,42.45,5,1014.71,27.6,33.05,1041889,17:37:56:108
-0.0187,-0.0289,-0.0923,42.45,5,1014.67,27.6,34.53,1042890,17:37:57:109
-0.0047,-0.0075,0.071,42.45,5,1014.68,27.6,35.597,1043889,17:37:58:108
0.0198,-0.0066,0.0111,42.45,5,1014.69,27.6,33.964,1044889,17:37:59:108
0.0136,-0.0165,-0.0347,42.45,5,1014.67,27.6,34.318,1045889,17:38:00:108
-0.0196,-0.0274,-0.0279,42.45,5,1014.7,27.6,33.534,1046889,17:38:01:108
-0.0193,-0.0355,-0.0864,42.45,5,1014.7,27.6,33.177,1047889,17:38:02:108
0.0276,0.0412,0.02,42.45,5,1014.67,27.6,34.086,1048889,17:38:03:108
-0.0014,-0.0131,0.026,42.45,5,1014.7,27.6,34.808,1049890,17:38:04:109
0.0044,0.0035,0.0044,42.45,5,1014.7,27.6,33.167,1050889,17:38:05:108
0.0491,0.0149,0.0122,42.45,5,1014.67,27.6,34.523,1051889,17:38:06:108
-0.0165,0.0338,-0.0337,42.45,5,1014.68,27.6,34.755,1052889,17:38:07:108
-0.0237,0.0376,-0.0666,42.45,5,1014.7,27.6,34.996,1053889,17:38:08:108
-0.0109,0.0306,0.0452,42.45,5,1014.69,27.6,35.645,1054889,17:38:09:108
-0.0165,0.0279,0.0168,42.45,5,1014.68,27.6,35.213,1055889,17:38:10:108
0.0396,-0.0099,0.0493,42.45,5,1014.68,27.6,36.048,1056889,17:38:11:108
-0.0178,0.0427,-0.0056,42.45,5,1014.7,27.6,35.888,1057889,17:38:12:108
-0.0098,0.0131,0.0295,42.45,5,1014.68,27.6,35.457,1058889,17:38:13:108
-0.0218,0.0172,-0.0247,42.45,5,1014.7,27.6,35.659,1059889,17:38:14:108
-0.0243,-0.0082,0.0112,42.45,5,1014.68,27.6,35.107,1060889,17:38:15:108
-0.0079,0.035,-0.0125,42.45,5,1014.68,27.6,34.881,1061889,17:38:16:108
-0.0179,0.0049,-0.0139,42.45,5,1014.7,27.6,34.812,1062889,17:38:17:108
-0.0036,0.007,-0.0234,42.45,5,1014.69,27.6,34.359,1063889,17:38:18:108
-0.0464,0.0533,0.0106,42.45,5,1014.69,27.6,34.931,1064889,17:38:19:108
0.0706,-0.0261,0.0743,42.45,5,1014.69,27.6,33.795,1065889,17:38:20:108
-0.0462,0.0334,-0.0445,42.45,5,1014.66,27.6,34.392,1066890,17:38:21:109
-0.036,-0.0242,0.0252,42.45,5,1014.67,27.6,33.537,1067889,17:38:22:108
-0.0079,0.0304,0.0093,42.45,5,1014.67,27.6,35.992,1068890,17:38:23:109
-0.0229,0.0165,0.0085,42.45,5,1014.85,27.6,33.205,1069889,17:38:24:108
-0.0375,-0.0048,-0.026,42.45,5,1014.84,27.6,33.858,1070890,17:38:25:109
-0.0186,0.0461,2.00E-04,42.45,5,1014.77,27.6,34.906,1071889,17:38:26:108
-0.024,-0.0011,0.0229,42.45,5,1014.73,27.6,34.563,1072890,17:38:27:109
-0.0092,0.0042,-0.018,42.45,5,1014.72,27.6,34.514,1073890,17:38:28:109
0.0234,0.0435,0.0224,42.45,5,1014.72,27.6,36.341,1074889,17:38:29:108
0.0197,-0.0301,-0.008,42.45,5,1014.71,27.6,35.237,1075889,17:38:30:108
-0.0128,0.0116,0.0393,42.45,5,1014.7,27.6,35.846,1076889,17:38:31:108
0.0282,-0.0083,0.0291,42.45,5,1014.72,27.6,35.709,1077889,17:38:32:108
-0.043,0.0101,-0.0378,42.45,5,1014.69,27.6,39.083,1078890,17:38:33:109
0.0307,0.0662,0.0469,42.45,5,1014.69,27.6,37.082,1079890,17:38:34:109
-0.0356,0.0077,0.0086,42.45,5,1014.7,27.6,38.553,1080889,17:38:35:108
-0.0274,0.011,-0.0256,42.45,5,1014.7,27.6,36.49,1081889,17:38:36:108
0.0203,0.0167,0.032,42.45,5,1014.68,27.6,37.267,1082889,17:38:37:108
0.0299,0.0125,-0.0304,42.45,5,1014.68,27.6,36.636,1083890,17:38:38:109
-0.0878,0.0398,0.0141,42.45,5,1014.65,27.6,38.293,1084889,17:38:39:108
-0.0029,0.0343,0.0328,42.45,5,1014.67,27.6,37.459,1085889,17:38:40:108
-0.0144,-0.0454,0.085,42.45,5,1014.67,27.6,35.597,1086889,17:38:41:108
0.0194,-0.004,0.0109,42.45,5,1014.66,27.6,34.212,1087889,17:38:42:108
-0.0589,-0.0102,0.0504,42.45,5,1014.65,27.6,35.782,1088889,17:38:43:108
0.0361,0.0052,-0.0265,42.45,5,1014.64,27.6,35.464,1089889,17:38:44:108
-0.0564,-0.0474,0.0682,42.45,5,1014.64,27.6,34.696,1090889,17:38:45:108
9.00E-04,0.0026,-0.0363,42.45,5,1014.64,27.6,33,1091889,17:38:46:108
0.0154,-0.0137,0.0903,42.45,5,1014.62,27.6,32.508,1092889,17:38:47:108
-0.0193,-0.0119,0.0347,42.45,5,1014.64,27.6,35.42,1093890,17:38:48:109
-0.016,0.0195,-0.0032,42.45,5,1014.64,27.6,34.793,1094889,17:38:49:108
0.008,0.0301,0.0141,42.45,5,1014.64,27.6,34.183,1095889,17:38:50:108
-0.0106,0.014,0.0626,42.45,5,1014.64,27.6,34.286,1096889,17:38:51:108
0.0793,0.0267,-0.0099,42.45,5,1014.65,27.6,34.071,1097889,17:38:52:108
-0.0253,-0.0164,-5.00E-04,42.45,5,1014.62,27.6,32.852,1098891,17:38:53:110
-0.0068,-0.0308,-0.0614,42.45,5,1014.64,27.6,35.901,1099889,17:38:54:108
-0.0219,0.0416,0.0213,42.45,5,1014.65,27.6,36.166,1100890,17:38:55:109
-0.0351,0.0053,0.0357,42.45,5,1014.66,27.6,34.426,1101889,17:38:56:108
0.0565,0.0155,-0.0458,42.45,5,1014.68,27.6,33.464,1102889,17:38:57:108
-0.0407,0.0314,-0.0377,42.45,5,1014.66,27.6,35.785,1103889,17:38:58:108
0.0516,-0.013,0.0057,42.45,5,1014.66,27.6,35.532,1104889,17:38:59:108
0.0117,-0.0504,0.0518,42.45,5,1014.65,27.5,34.223,1105889,17:39:00:108
-0.0148,-0.0069,-0.0416,42.45,5,1014.67,27.6,35.276,1106889,17:39:01:108
-0.0392,0.024,-0.0719,42.45,5,1014.68,27.6,34.5,1107889,17:39:02:108
-0.0027,-0.0455,0.0027,42.45,5,1014.69,27.5,36.57,1108889,17:39:03:108
0.0355,0.0341,0.041,42.45,5,1014.7,27.5,36.753,1109889,17:39:04:108
0.0087,0.0054,-0.0155,42.45,5,1014.67,27.5,37.234,1110890,17:39:05:109
0.0471,0.0098,-0.0309,42.45,5,1014.71,27.5,34.524,1111889,17:39:06:108
0.0113,0.0444,-0.0252,42.45,5,1014.69,27.5,35.51,1112889,17:39:07:108
0.0334,0.0175,-0.0233,42.45,5,1014.71,27.5,36.336,1113890,17:39:08:109
-0.0195,-0.0167,0.0473,42.45,5,1014.71,27.5,35.844,1114889,17:39:09:108
0.0357,0.0214,-0.0026,42.45,5,1014.69,27.5,38.632,1115889,17:39:10:108
0.0038,-0.0298,0.1175,42.45,5,1014.72,27.5,35.605,1116889,17:39:11:108
0.0161,-0.0196,0.0178,42.45,5,1014.69,27.5,35.425,1117889,17:39:12:108
0.0574,0.0242,0.0592,42.45,5,1014.7,27.5,37.697,1118889,17:39:13:108
0.0417,0.0025,0.0075,42.45,5,1014.71,27.5,36.216,1119889,17:39:14:108
-0.0319,-0.035,-0.0226,42.45,5,1014.72,27.5,35.16,1120889,17:39:15:108
-0.051,-0.0061,0.0254,42.45,5,1014.71,27.5,36.546,1121889,17:39:16:108
0.0186,-0.0375,-0.0464,42.45,5,1014.74,27.5,35.786,1122889,17:39:17:108
-0.0475,-0.0495,0.025,42.45,5,1014.76,27.5,34.314,1123889,17:39:18:108
-0.0208,0.0253,-0.0026,42.45,5,1014.74,27.5,35.329,1124889,17:39:19:108
-0.0095,-0.0568,-0.0011,42.45,5,1014.73,27.5,36.209,1125890,17:39:20:109
-0.0405,-0.0055,-0.052,42.45,5,1014.74,27.5,34.498,1126889,17:39:21:108
0.0026,-0.0078,-0.0651,42.45,5,1014.71,27.5,34.697,1127889,17:39:22:108
0.0058,0.0406,0.002,42.45,5,1014.72,27.5,35.643,1128890,17:39:23:109
-7.00E-04,0.0329,0.0299,42.45,5,1014.71,27.5,34.071,1129889,17:39:24:108
-0.0258,-0.0547,-0.0273,42.45,5,1014.71,27.5,34.565,1130889,17:39:25:108
6.00E-04,-0.0197,-0.035,42.45,5,1014.72,27.5,33.507,1131890,17:39:26:109
0.0569,0.0108,0.0125,42.45,5,1014.69,27.5,34.075,1132891,17:39:27:110
-0.0173,-0.0136,0.0527,42.45,5,1014.7,27.5,34.258,1133889,17:39:28:108
0.0661,0.0292,0.0239,42.45,5,1014.71,27.5,32.74,1134890,17:39:29:109
-0.0293,0.0146,-0.0355,42.45,5,1014.7,27.5,34.431,1135889,17:39:30:108
0.0172,0.0209,0.0108,42.45,5,1014.71,27.5,34.996,1136890,17:39:31:109
-0.0482,-0.0202,0.0467,42.45,5,1014.71,27.5,33.295,1137889,17:39:32:108
-0.0395,-0.0149,0.023,42.45,5,1014.68,27.5,32.776,1138889,17:39:33:108
0.0036,0.0124,-0.0207,42.45,5,1014.68,27.5,34.436,1139890,17:39:34:109
-0.0088,-0.029,0.0109,42.45,5,1014.67,27.5,31.477,1140889,17:39:35:108
0.0019,0.0312,-0.0139,42.45,5,1014.71,27.5,34.198,1141889,17:39:36:108
0.006,-0.0251,0.0479,42.45,5,1014.68,27.5,34.332,1142889,17:39:37:108
-0.0248,0.0031,0.0251,42.45,5,1014.67,27.5,33.007,1143889,17:39:38:108
-0.0031,-0.0081,0.0155,42.45,5,1014.66,27.5,34.152,1144889,17:39:39:108
-0.0366,0.046,0.0238,42.45,5,1014.7,27.5,33.479,1145889,17:39:40:108
-0.0423,0.0314,0.0259,42.45,5,1014.7,27.5,34.101,1146889,17:39:41:108
0.003,0.0016,-0.0348,42.45,5,1014.69,27.5,35.563,1147889,17:39:42:108
0.0337,-0.0395,0.0192,42.45,5,1014.69,27.5,34.125,1148889,17:39:43:108
-0.0285,0.0154,-0.0641,42.45,5,1014.7,27.5,33.454,1149889,17:39:44:108
0.0254,0.014,8.00E-04,42.45,5,1014.72,27.5,37.092,1150890,17:39:45:109
-0.0041,0.0349,0.0224,42.45,5,1014.69,27.5,36.152,1151889,17:39:46:108
0.0155,-0.0193,0.0754,42.45,5,1014.7,27.5,35.629,1152889,17:39:47:108
0.0466,0.0209,0.0733,42.45,5,1014.7,27.5,34.192,1153890,17:39:48:109
0.0272,0.0033,0.0096,42.45,5,1014.71,27.5,36.066,1154889,17:39:49:108
0.0227,0.0193,-0.0118,42.45,5,1014.7,27.5,35.397,1155889,17:39:50:108
0.0096,-0.0223,-0.0872,42.45,5,1014.72,27.5,33.501,1156890,17:39:51:109
0.0085,0.0129,-0.0456,42.45,5,1014.69,27.5,35.868,1157889,17:39:52:108
0.025,0.0032,0.0961,42.45,5,1014.73,27.5,37.359,1158889,17:39:53:108
0.0272,-0.0125,0.0353,42.45,5,1014.72,27.5,34.878,1159889,17:39:54:108
-0.0507,0.0367,-0.0169,42.45,5,1014.73,27.5,35.443,1160889,17:39:55:108
-0.0447,0.0347,0.0104,42.45,5,1014.72,27.5,36.169,1161889,17:39:56:108
-0.0616,-0.0135,-0.0112,42.45,5,1014.72,27.5,34.767,1162890,17:39:57:109
0.0326,-0.0283,-0.0032,42.45,5,1014.76,27.5,36.491,1163889,17:39:58:108
0.0105,-0.0454,0.0166,42.45,5,1014.76,27.5,35.9,1164889,17:39:59:108
-0.003,0.0045,-0.015,42.45,5,1014.74,27.5,37.046,1165889,17:40:00:108
0.0137,-0.012,0.0347,42.45,5,1014.74,27.5,36.103,1166889,17:40:01:108
-0.0084,-0.0065,-0.0394,42.45,5,1014.76,27.5,36.594,1167890,17:40:02:109
-0.0059,6.00E-04,-0.0051,42.45,5,1014.75,27.5,37.808,1168889,17:40:03:108
0.0059,-0.0045,-0.0205,42.45,5,1014.79,27.5,35.711,1169894,17:40:04:113
-0.021,-0.0134,-0.0556,42.45,5,1014.77,27.5,35.521,1170889,17:40:05:108
0.0611,-0.0086,-0.0809,42.45,5,1014.77,27.5,35.217,1171889,17:40:06:108
-0.0152,0.056,-0.0632,42.45,5,1014.76,27.5,35.265,1172889,17:40:07:108
7.00E-04,0.0417,0.0406,42.45,5,1014.77,27.5,36.17,1173890,17:40:08:109
0.0516,0.0352,0.0161,42.45,5,1014.73,27.5,35.815,1174889,17:40:09:108
0.0165,0.0278,0.0325,42.45,5,1014.73,27.5,35.181,1175890,17:40:10:109
0.0335,0.0597,-0.0589,42.45,5,1014.75,27.5,36.424,1176889,17:40:11:108
0.0186,0.0225,-0.0394,42.45,5,1014.73,27.5,35.33,1177889,17:40:12:108
0.0118,-0.0128,-0.0925,42.45,5,1014.73,27.5,36.568,1178889,17:40:13:108
0.0082,0.0471,0.0395,42.45,5,1014.73,27.5,36.115,1179889,17:40:14:108
7.00E-04,-0.0497,-0.0172,42.45,5,1014.74,27.5,36.058,1180889,17:40:15:108
-0.0701,-0.0042,-0.0484,42.45,5,1014.71,27.5,35.72,1181890,17:40:16:109
0.0239,-0.0133,-0.122,42.45,5,1014.75,27.5,35.531,1182890,17:40:17:109
0.0166,0.0048,0.0203,42.45,5,1014.73,27.5,34.431,1183889,17:40:18:108
-0.004,-0.0099,0.0339,42.45,5,1014.75,27.5,36.14,1184889,17:40:19:108
0.0016,-0.0139,0.008,42.45,5,1014.74,27.5,35.475,1185889,17:40:20:108
0,0.0158,0.02,42.45,5,1014.73,27.5,35.172,1186889,17:40:21:108
0.0144,0.0478,-0.0411,42.45,5,1014.73,27.5,35.662,1187889,17:40:22:108
0.0119,0.0112,0.021,42.45,5,1014.74,27.5,35.775,1188889,17:40:23:108
0.0362,0.044,-0.0372,42.45,5,1014.74,27.5,35.576,1189889,17:40:24:108
0.0446,0.0099,-0.0733,42.45,5,1014.74,27.5,34.96,1190889,17:40:25:108
0,-0.0366,0.0336,42.45,5,1014.73,27.5,35.527,1191890,17:40:26:109
-0.0588,0.0413,-0.0115,42.45,5,1014.73,27.5,34.329,1192889,17:40:27:108
0.0513,3.00E-04,0.0319,42.45,5,1014.74,27.5,34.177,1193889,17:40:28:108
-0.0213,-0.0055,-0.0278,42.45,5,1014.75,27.5,36.36,1194889,17:40:29:108
-0.0137,0.0289,0.0796,42.45,5,1014.76,27.5,36,1195890,17:40:30:109
-0.0063,0.0258,-0.034,42.45,5,1014.77,27.5,35.819,1196889,17:40:31:108
0.0198,-0.0446,0.0185,42.45,5,1014.75,27.5,35.425,1197889,17:40:32:108
0.0191,0.0046,-0.0209,42.45,5,1014.77,27.5,36.642,1198889,17:40:33:108
0.0155,-0.0679,-0.0043,42.45,5,1014.78,27.5,35.145,1199889,17:40:34:108
0.0557,0.0298,0.0106,42.45,5,1014.77,27.5,34.144,1200890,17:40:35:109
0.0657,0.0208,0.0613,42.45,5,1014.75,27.5,34.914,1201889,17:40:36:108
0.0401,-0.0174,0.0044,42.45,5,1014.76,27.5,34.632,1202889,17:40:37:108
-0.0086,-0.0253,-0.0149,42.45,5,1014.75,27.5,34.554,1203890,17:40:38:109
0.0431,0.0134,-0.023,42.45,5,1014.73,27.5,35.69,1204889,17:40:39:108
-0.0293,0.011,-0.0066,42.45,5,1014.75,27.5,34.877,1205889,17:40:40:108
0.012,-0.0115,0.0178,42.45,5,1014.74,27.5,35.287,1206889,17:40:41:108
0.0121,-0.0016,-0.0191,42.45,5,1014.72,27.5,34.834,1207889,17:40:42:108
0.018,0.0296,0.0052,42.45,5,1014.74,27.5,35.044,1208889,17:40:43:108
0.0252,0.0294,-0.039,42.45,5,1014.72,27.5,34.546,1209890,17:40:44:109
-0.0233,0.0459,0.018,42.45,5,1014.7,27.5,35.326,1210889,17:40:45:108
-0.0034,0.0176,-0.0641,42.45,5,1014.8,27.5,34.809,1211890,17:40:46:109
0.0142,0.0108,-0.0178,42.45,5,1014.82,27.5,34.172,1212889,17:40:47:108
0.0309,-0.0603,0.0241,42.45,5,1014.79,27.5,35.315,1213890,17:40:48:109
-0.0051,0.0137,0.0236,42.45,5,1014.74,27.5,34.977,1214889,17:40:49:108
0.0024,0.0051,0.0241,42.45,5,1014.72,27.5,34.087,1215889,17:40:50:108
0.0524,-0.0068,0.0599,42.45,5,1014.74,27.5,34.934,1216889,17:40:51:108
-0.0344,0.0328,0.011,42.45,5,1014.75,27.5,35.242,1217889,17:40:52:108
0.0087,0.0119,-0.0543,42.45,5,1014.72,27.5,35.32,1218889,17:40:53:108
-0.0121,-0.0252,-0.0416,42.45,5,1014.73,27.5,33.955,1219889,17:40:54:108
0.0198,0.065,-0.0472,42.45,5,1014.74,27.5,35.565,1220889,17:40:55:108
-0.0021,-0.0451,0.0263,42.45,5,1014.73,27.5,34.541,1221889,17:40:56:108
-0.0127,-0.0279,-0.0773,42.45,5,1014.74,27.5,33.33,1222889,17:40:57:108
0.0438,-0.0196,-0.0187,42.45,5,1014.76,27.5,33.702,1223893,17:40:58:112
0.0058,-0.0258,-0.0355,42.45,5,1014.75,27.5,33.8,1224890,17:40:59:109
0.0039,0.0093,-0.0455,42.45,5,1014.73,27.5,35.01,1225889,17:41:00:108
0.01,-0.0543,0.0177,42.45,5,1014.76,27.5,32.586,1226889,17:41:01:108
0.0165,-0.0061,0.004,42.45,5,1014.79,27.5,38.62,1227889,17:41:02:108
0.0208,0.02,-0.0548,42.45,5,1014.78,27.5,33.931,1228890,17:41:03:109
-0.0442,0.0177,-0.0064,42.45,5,1014.78,27.5,34.114,1229890,17:41:04:109
-0.0052,-0.0213,0.0746,42.45,5,1014.77,27.5,33.314,1230889,17:41:05:108
0.0063,0.0287,0.0081,42.45,5,1014.78,27.5,34.149,1231889,17:41:06:108
0.009,-0.031,-0.0185,42.45,5,1014.76,27.5,35.627,1232890,17:41:07:109
-0.007,-0.0121,0.002,42.45,5,1014.78,27.5,33.551,1233890,17:41:08:109
0.019,-0.0329,0.0404,42.45,5,1014.75,27.5,35.063,1234889,17:41:09:108
0.013,0.0366,0.0656,42.45,5,1014.76,27.5,36.178,1235889,17:41:10:108
-0.0483,-0.0208,0.006,42.45,5,1014.76,27.5,34.687,1236889,17:41:11:108
0.0072,-0.0283,-0.0337,42.45,5,1014.76,27.5,36.655,1237889,17:41:12:108
-0.0206,-0.0053,2.00E-04,42.45,5,1014.77,27.5,36.811,1238890,17:41:13:109
-0.0155,0.0153,-0.0114,42.45,5,1014.77,27.5,34.98,1239889,17:41:14:108
-0.0652,-0.0374,0.0358,42.45,5,1014.77,27.5,35.816,1240889,17:41:15:108
0.0082,-0.0066,0.0369,42.45,5,1014.77,27.5,41.448,1241889,17:41:16:108
-0.0233,-0.0205,0.06,42.45,5,1014.79,27.5,40.564,1242890,17:41:17:109
0.071,0.0142,0.0286,42.45,5,1014.79,27.4,45.184,1243889,17:41:18:108
-0.0226,-0.041,-0.0591,42.45,5,1014.77,27.4,44.036,1244889,17:41:19:108
-0.0065,0.0177,0.029,42.45,5,1014.79,27.4,45.176,1245889,17:41:20:108
-0.0086,-0.0089,0.0513,42.45,5,1014.81,27.4,41.021,1246889,17:41:21:108
-0.0087,0.014,-0.0379,42.45,5,1014.79,27.4,46.934,1247889,17:41:22:108
0.04,0.0319,0.0245,42.45,5,1014.78,27.4,47.376,1248889,17:41:23:108
0.0296,0.0134,-0.0354,42.45,5,1014.8,27.4,45.917,1249889,17:41:24:108
-0.042,-0.0453,0.005,42.45,5,1014.8,27.4,44.035,1250890,17:41:25:109
0.0498,0.0554,-0.0926,42.45,5,1014.77,27.4,46.826,1251889,17:41:26:108
0.0284,0.0259,0.0175,42.45,5,1014.8,27.4,44.726,1252890,17:41:27:109
0.031,-0.0115,-0.0846,42.45,5,1014.79,27.4,49.015,1253889,17:41:28:108
-0.0167,-0.0332,-0.0153,42.45,5,1014.8,27.4,46.737,1254889,17:41:29:108
0.0084,-0.0803,-0.0311,42.45,5,1014.82,27.4,43.872,1255889,17:41:30:108
0.012,-0.0202,0.0074,42.45,5,1014.81,27.4,44.425,1256889,17:41:31:108
-0.0473,-0.0122,0.0083,42.45,5,1014.79,27.4,44.449,1257889,17:41:32:108
0.0332,0.0704,0.0424,42.45,5,1014.78,27.4,43.784,1258889,17:41:33:108
-0.0159,-0.006,0.0021,42.45,5,1014.78,27.4,44.41,1259889,17:41:34:108
0.0298,-0.0074,-0.0457,42.45,5,1014.78,27.4,44.463,1260890,17:41:35:109
0.0267,0.0118,0.0099,42.45,5,1014.78,27.4,43.978,1261889,17:41:36:108
-0.0685,-0.0214,-0.0014,42.45,5,1014.76,27.4,41.184,1262889,17:41:37:108
-0.0049,0.0057,0.061,42.45,5,1014.73,27.4,42.27,1263889,17:41:38:108
-0.1003,-0.0373,-0.0617,42.45,5,1014.73,27.4,46.377,1264889,17:41:39:108
-0.0162,-0.0036,-0.0311,42.45,5,1014.73,27.4,41.699,1265889,17:41:40:108
7.00E-04,-0.0196,-0.0058,42.45,5,1014.71,27.4,42.834,1266889,17:41:41:108
0.0029,-0.0042,-0.0376,42.45,5,1014.69,27.4,44.507,1267890,17:41:42:109
0.0043,0.0319,0.0226,42.45,5,1014.71,27.4,44.106,1268889,17:41:43:108
0.0376,0.017,-0.0153,42.45,5,1014.71,27.4,47.341,1269889,17:41:44:108
0.0116,0.0413,-0.0328,42.45,5,1014.71,27.4,42.746,1270889,17:41:45:108
-0.01,-3.00E-04,-0.0082,42.45,5,1014.73,27.4,44.639,1271889,17:41:46:108
-0.0226,0.0173,-0.0552,42.45,5,1014.74,27.4,44.9,1272889,17:41:47:108
0.0328,0.0241,0.0405,42.45,5,1014.75,27.4,45.595,1273890,17:41:48:109
-0.043,-0.0434,-0.0826,42.45,5,1014.75,27.4,45.815,1274890,17:41:49:109
-0.0396,0.0427,-0.0247,42.45,5,1014.74,27.4,43.873,1275889,17:41:50:108
0.0121,-0.0641,-0.0282,42.45,5,1014.75,27.4,45.051,1276889,17:41:51:108
0.0301,-0.0396,0.0095,42.45,5,1014.75,27.4,47.042,1277891,17:41:52:110
-0.0532,0.0247,0.0509,42.45,5,1014.75,27.4,45.211,1278889,17:41:53:108
9.00E-04,-6.00E-04,0.0521,42.45,5,1014.71,27.4,43.042,1279889,17:41:54:108
-0.0219,-0.0109,-0.0466,42.45,5,1014.75,27.4,43.761,1280890,17:41:55:109
-0.0099,0.0015,0.038,42.45,5,1014.74,27.4,44.769,1281890,17:41:56:109
0.039,-0.0112,0.0267,42.45,5,1014.72,27.4,43.993,1282889,17:41:57:108
-0.0409,-0.0206,0.0523,42.45,5,1014.75,27.4,45.551,1283890,17:41:58:109
0.0254,0.0371,0.0771,42.45,5,1014.72,27.4,46.419,1284890,17:41:59:109
0.0494,0.019,0.0064,42.45,5,1014.74,27.4,46.409,1285889,17:42:00:108
0.0576,0.0373,-0.0277,42.45,5,1014.75,27.4,46.233,1286889,17:42:01:108
0.0019,0.057,-0.0168,42.45,5,1014.76,27.4,45.049,1287889,17:42:02:108
-0.0177,-0.0058,-0.0257,42.45,5,1014.75,27.4,46.22,1288889,17:42:03:108
-0.003,0.0122,0.1204,42.45,5,1014.75,27.4,37.752,1289889,17:42:04:108
0,-0.0061,-0.0202,42.45,5,1014.75,27.4,35.32,1290889,17:42:05:108
0.0215,-0.0245,0.0971,42.45,5,1014.72,27.4,37.875,1291889,17:42:06:108
-0.0213,-0.0268,-0.0088,42.45,5,1014.74,27.4,35.559,1292890,17:42:07:109
-0.0251,-0.0276,0.083,42.45,5,1014.72,27.4,34.192,1293889,17:42:08:108
0.0501,-0.0123,-0.0345,42.45,5,1014.74,27.4,33.077,1294889,17:42:09:108
0.0155,-0.0526,-0.0376,42.45,5,1014.73,27.4,43.441,1295890,17:42:10:109
0.0088,-0.016,-0.0218,42.45,5,1014.72,27.4,39.06,1296889,17:42:11:108
0.0402,0.033,0.1161,42.45,5,1014.72,27.4,36.59,1297889,17:42:12:108
-0.0237,-0.013,-0.0804,42.45,5,1014.71,27.4,35.795,1298890,17:42:13:109
0.0092,0.0015,0.0039,42.45,5,1014.71,27.4,37.506,1299889,17:42:14:108
0.0148,0.0756,-2.00E-04,42.45,5,1014.73,27.4,39.679,1300889,17:42:15:108
0.0074,0.0586,-0.07,42.45,5,1014.72,27.4,34.751,1301889,17:42:16:108
-0.0395,0.0657,0.0524,42.45,5,1014.73,27.4,35.067,1302889,17:42:17:108
-8.00E-04,0.0232,8.00E-04,42.45,5,1014.72,27.4,41.343,1303889,17:42:18:108
-0.0081,0.0115,0.0022,42.45,5,1014.73,27.4,35.698,1304890,17:42:19:109
-0.0143,0.0332,-0.0658,42.45,5,1014.74,27.4,35.878,1305889,17:42:20:108
-0.0485,-0.0095,-0.0203,42.45,5,1014.75,27.4,37.682,1306889,17:42:21:108
-0.0151,-0.0244,0.0299,42.45,5,1014.75,27.4,40.765,1307889,17:42:22:108
-0.0197,-0.025,0.0105,42.45,5,1014.77,27.4,40.298,1308889,17:42:23:108
-0.0138,0.0067,0.0044,42.45,5,1014.75,27.4,36.946,1309890,17:42:24:109
-0.0533,-0.0408,0.0222,42.45,5,1014.77,27.4,43.757,1310889,17:42:25:108
-0.0031,0.0076,-0.0489,42.45,5,1014.77,27.4,36.492,1311889,17:42:26:108
0,-0.0472,-0.0194,42.45,5,1014.74,27.4,39.145,1312889,17:42:27:108
0.0196,-0.0088,0.0364,42.45,5,1014.76,27.4,41.212,1313890,17:42:28:109
0.0043,0.0306,-0.0105,42.45,5,1014.75,27.4,40.29,1314889,17:42:29:108
0.0175,0.0115,0.0124,42.45,5,1014.75,27.4,45.569,1315889,17:42:30:108
-0.0427,-0.0422,-0.0027,42.45,5,1014.75,27.4,38.068,1316889,17:42:31:108
-0.0154,0.0215,-0.0242,42.45,5,1014.88,27.4,37.336,1317889,17:42:32:108
0.0121,0.0203,0.0398,42.45,5,1014.84,27.4,39.372,1318890,17:42:33:109
-0.0339,0.0458,0.0272,42.45,5,1014.81,27.4,41.835,1319889,17:42:34:108
0.0499,-0.0763,-0.0158,42.45,5,1014.79,27.4,39.346,1320890,17:42:35:109
0.0341,-0.0452,0.0018,42.45,5,1014.77,27.4,44.876,1321889,17:42:36:108
-0.0584,0.0409,-0.0058,42.45,5,1014.76,27.4,42.778,1322889,17:42:37:108
-0.0036,-0.001,-0.0175,42.45,5,1014.77,27.4,40.924,1323891,17:42:38:110
-0.0185,0.0449,-0.0651,42.45,5,1014.81,27.4,37.217,1324890,17:42:39:109
-0.055,0.0416,0.0296,42.45,5,1014.81,27.4,38.402,1325889,17:42:40:108
-0.0048,0.0438,0.0043,42.45,5,1014.78,27.4,45.592,1326889,17:42:41:108
0.0292,-0.0159,-0.064,42.45,5,1014.78,27.4,41.631,1327889,17:42:42:108
0.007,-0.0344,-0.0502,42.45,5,1014.78,27.4,40.251,1328889,17:42:43:108
0.015,0.0239,0.0571,42.45,5,1014.78,27.4,43.459,1329889,17:42:44:108
-0.0449,-0.0176,0.0081,42.45,5,1014.73,27.4,40.031,1330889,17:42:45:108
-0.029,0.0293,-0.0181,42.45,5,1014.75,27.4,39.602,1331889,17:42:46:108
0.0452,0.015,0.0311,42.45,5,1014.8,27.4,43.799,1332889,17:42:47:108
-0.0261,-0.0734,0.0321,42.45,5,1014.79,27.4,43.368,1333889,17:42:48:108
-0.0061,0.011,-0.0349,42.45,5,1014.75,27.4,38.743,1334889,17:42:49:108
-0.0242,-0.0179,-0.0511,42.45,5,1014.9,27.4,37.995,1335889,17:42:50:108
0.0129,0.0091,0.1079,42.45,5,1015.25,27.4,41.613,1336889,17:42:51:108
0.0024,0.0305,0.0198,42.45,5,1015.14,27.5,38.832,1337889,17:42:52:108
-0.011,0.012,0.0126,42.45,5,1015.03,27.5,43.188,1338890,17:42:53:109
-0.0032,0.0155,0.0508,42.45,5,1014.92,27.5,39.395,1339889,17:42:54:108
0.0163,-0.0048,-0.049,42.45,5,1014.85,27.5,41.351,1340889,17:42:55:108
-0.037,0.0228,-0.0063,42.45,5,1014.78,27.6,40.63,1341890,17:42:56:109
-0.0122,-0.0035,0.0442,42.45,5,1014.73,27.6,42.632,1342889,17:42:57:108
0.098,-0.0108,-0.0389,42.45,5,1014.69,27.5,41.417,1343889,17:42:58:108
0.0263,0.0308,-0.0838,42.45,5,1014.67,27.5,44.295,1344889,17:42:59:108
0.0445,-0.0275,0.0403,42.45,5,1014.63,27.5,40.52,1345889,17:43:00:108
-0.0097,-0.0097,-0.0213,42.45,5,1014.64,27.5,42.367,1346889,17:43:01:108
0.0255,0.0254,-0.037,42.45,5,1014.62,27.5,44.707,1347889,17:43:02:108
0.0152,-0.08,-0.0606,42.45,5,1014.64,27.5,41.92,1348889,17:43:03:108
0.021,0.0314,0.0124,42.45,5,1014.67,27.5,43.134,1349890,17:43:04:109
-0.0017,-0.0635,-0.1181,42.45,5,1014.64,27.5,40.692,1350889,17:43:05:108
-0.0323,-0.0182,0.0332,42.45,5,1014.69,27.5,41.962,1351888,17:43:06:107
0.0165,-0.0492,-0.0048,42.45,5,1014.71,27.5,41.077,1352889,17:43:07:108
-0.0281,-0.0436,0.004,42.45,5,1014.72,27.5,41.762,1353889,17:43:08:108
0.0379,0.0473,9.00E-04,42.45,5,1014.68,27.5,42.918,1354889,17:43:09:108
0.0274,0.0469,-0.017,42.45,5,1014.69,27.5,44.877,1355890,17:43:10:109
-0.0066,0.0084,0.0536,42.45,5,1014.69,27.5,40.167,1356889,17:43:11:108
-0.0213,0.038,-0.0449,42.45,5,1014.66,27.5,39.934,1357889,17:43:12:108
0.0127,0.0035,-0.0015,42.45,5,1014.7,27.5,43.391,1358889,17:43:13:108
0.0506,-0.0492,-0.0081,42.45,5,1014.71,27.5,42.911,1359889,17:43:14:108
0.0335,-0.0176,0.0669,42.45,5,1014.7,27.5,36.748,1360889,17:43:15:108
0.0045,-0.0452,-0.0276,42.45,5,1014.7,27.5,36.935,1361889,17:43:16:108
-0.0148,-0.0025,0.0759,42.45,5,1014.7,27.5,39.253,1362889,17:43:17:108
-0.036,0.0037,0.0301,42.45,5,1014.74,27.4,35.799,1363889,17:43:18:108
-0.0139,0.0204,-0.0017,42.45,5,1014.74,27.4,44.122,1364889,17:43:19:108
-0.0138,0.0528,-0.0772,42.45,5,1014.74,27.4,39.691,1365889,17:43:20:108
0.0403,0.0312,-0.0508,42.45,5,1014.75,27.4,37.814,1366889,17:43:21:108
0.0301,-0.0084,-0.065,42.45,5,1014.77,27.4,37.628,1367889,17:43:22:108
-0.0133,0.023,-0.081,42.45,5,1014.74,27.4,39.466,1368890,17:43:23:109
-0.049,0.0245,0.0615,42.45,5,1014.78,27.4,44.542,1369889,17:43:24:108
0.0351,-0.0217,0.0525,42.45,5,1014.79,27.4,42.598,1370889,17:43:25:108
0.0079,0.0188,0.0689,42.45,5,1014.78,27.4,40.672,1371894,17:43:26:113
-0.0596,-0.0026,0.0093,42.45,5,1014.79,27.4,42.128,1372890,17:43:27:109
-0.0147,-0.0146,-0.0274,42.45,5,1014.78,27.4,41.413,1373889,17:43:28:108
0.008,-9.00E-04,-0.0316,42.45,5,1014.8,27.4,42.038,1374889,17:43:29:108
0.0275,-0.0019,-0.0243,42.45,5,1014.79,27.4,40.699,1375889,17:43:30:108
0.014,-0.0051,0.0308,42.45,5,1014.79,27.4,38.274,1376889,17:43:31:108
-0.0198,-0.0145,-0.1213,42.45,5,1015,27.4,41.621,1377889,17:43:32:108
-0.0154,0.0266,-0.0588,42.45,5,1015.14,27.4,42.639,1378889,17:43:33:108
0.0874,-0.0096,0.0161,42.45,5,1015.1,27.5,37.982,1379889,17:43:34:108
0.026,0.0059,0.0225,42.45,5,1014.98,27.5,46.766,1380890,17:43:35:109
-0.0203,0.0204,-0.028,42.45,5,1014.92,27.5,42.458,1381889,17:43:36:108
-0.0344,-0.0586,0.0284,42.45,5,1014.9,27.5,37.444,1382889,17:43:37:108
0.0205,-0.0104,0.0144,42.45,5,1014.88,27.5,41.482,1383889,17:43:38:108
0.002,-0.0133,0.0017,42.45,5,1014.81,27.5,39.647,1384889,17:43:39:108
-0.0176,-0.0199,0.0246,42.45,5,1014.81,27.5,41.618,1385889,17:43:40:108
0.0291,-0.0293,0.0907,42.45,5,1014.77,27.5,40.547,1386889,17:43:41:108
0.0238,-0.0371,0.0088,42.45,5,1014.77,27.5,44.731,1387889,17:43:42:108
0.0349,0.0278,0.0442,42.45,5,1014.77,27.5,41.048,1388889,17:43:43:108
-0.031,-0.0059,0.0083,42.45,5,1014.74,27.5,43.498,1389889,17:43:44:108
-0.0133,-0.0487,-0.0439,42.45,5,1014.74,27.5,36.631,1390889,17:43:45:108
0.007,-0.0233,0.0064,42.45,5,1014.72,27.5,40.77,1391889,17:43:46:108
-0.0322,-0.0104,0.0219,42.45,5,1014.75,27.5,42.193,1392889,17:43:47:108
0.0239,0.0235,-0.0374,42.45,5,1014.77,27.5,44.235,1393889,17:43:48:108
-0.0243,-0.0196,0.1079,42.45,5,1014.74,27.5,40.685,1394890,17:43:49:109
-0.0164,-0.0128,0.0257,42.45,5,1014.72,27.5,41.429,1395889,17:43:50:108
-0.0051,-0.0097,0.0855,42.45,5,1014.72,27.4,41.507,1396889,17:43:51:108
-0.0269,0.0093,0.0456,42.45,5,1014.74,27.4,42.192,1397890,17:43:52:109
-0.0015,0.0042,-0.0092,42.45,5,1014.75,27.4,44.827,1398889,17:43:53:108
0.0308,0.0152,-0.0536,42.45,5,1014.76,27.4,40.579,1399889,17:43:54:108
-0.0259,0.0046,0.1196,42.45,5,1014.75,27.4,39.306,1400890,17:43:55:109
0.0096,-0.0152,-0.0231,42.45,5,1014.74,27.4,42.751,1401889,17:43:56:108
2.00E-04,-0.0138,0.0252,42.45,5,1014.73,27.4,43.331,1402889,17:43:57:108
0.0022,-0.0101,-0.0783,42.45,5,1014.75,27.4,42.924,1403889,17:43:58:108
1.00E-04,-0.0366,0.0384,42.45,5,1014.77,27.4,43.334,1404890,17:43:59:109
0.0111,-0.0097,0.0296,42.45,5,1014.77,27.4,43.63,1405889,17:44:00:108
0.0037,-0.0114,-0.0173,42.45,5,1014.76,27.4,42.523,1406889,17:44:01:108
0.0378,0.0258,0.024,42.45,5,1014.78,27.4,41.557,1407889,17:44:02:108
-0.0159,-0.0041,-0.0422,42.45,5,1014.77,27.4,42.092,1408889,17:44:03:108
-8.00E-04,-0.0263,0.0575,42.45,5,1014.79,27.4,42.809,1409889,17:44:04:108
0.0197,-0.0174,-0.0493,42.45,5,1014.79,27.4,44.16,1410889,17:44:05:108
0.0101,0.0132,0.0432,42.45,5,1014.79,27.4,41.981,1411889,17:44:06:108
0.0188,0.0184,-0.0273,42.45,5,1014.78,27.4,42.543,1412889,17:44:07:108
-0.0594,0.0051,-0.0389,42.45,5,1014.8,27.4,43.681,1413890,17:44:08:109
0.0076,0.005,-0.0552,42.45,5,1014.78,27.4,41.011,1414889,17:44:09:108
-0.0342,0.0459,0.011,42.45,5,1014.8,27.4,42.619,1415889,17:44:10:108
0.003,0.0295,-0.0252,42.45,5,1014.8,27.4,41.272,1416889,17:44:11:108
0.0087,-0.02,0.0529,42.45,5,1014.81,27.4,40.179,1417889,17:44:12:108
0.0045,-0.0794,-0.0083,42.45,5,1014.78,27.4,41.599,1418889,17:44:13:108
0.0182,-0.0277,0.0682,42.45,5,1014.8,27.4,42.261,1419889,17:44:14:108
0.0274,-0.0216,-0.0781,42.45,5,1014.81,27.4,41.57,1420889,17:44:15:108
-0.0297,0.0152,0.0021,42.45,5,1014.8,27.4,41.669,1421889,17:44:16:108
-0.0027,-0.0149,-0.0034,42.45,5,1014.79,27.4,42.687,1422889,17:44:17:108
-0.0331,0.0084,-0.0312,42.45,5,1014.8,27.4,33.464,1423889,17:44:18:108
0.0131,-0.0113,0.0394,42.45,5,1014.78,27.4,32.49,1424889,17:44:19:108
0.0479,-0.0186,-0.0723,42.45,5,1014.8,27.4,33.295,1425890,17:44:20:109
-0.0192,-0.0368,-0.0939,42.45,5,1014.79,27.4,34.476,1426889,17:44:21:108
-0.0286,-0.0344,0.0223,42.45,5,1014.81,27.4,33.407,1427889,17:44:22:108
-0.0427,0.0334,-0.0085,42.45,5,1014.81,27.4,34.027,1428889,17:44:23:108
-0.0167,0.0322,0.0224,42.45,5,1014.81,27.4,33.564,1429890,17:44:24:109
-0.0236,-0.0024,-0.0302,42.45,5,1014.81,27.3,32.776,1430889,17:44:25:108
-0.0209,0.0211,0.0307,42.45,5,1014.83,27.3,34.427,1431890,17:44:26:109
0.0014,-0.0037,-0.0275,42.45,5,1014.82,27.3,35.947,1432889,17:44:27:108
0.0446,-0.027,-0.0719,42.45,5,1014.83,27.3,33.944,1433889,17:44:28:108
0.039,-0.0243,0.1228,42.45,5,1014.83,27.3,35.006,1434889,17:44:29:108
0.0121,0.0145,-0.0166,42.45,5,1014.85,27.3,38.107,1435890,17:44:30:109
-0.0187,-0.0049,-0.0625,42.45,5,1014.85,27.3,36.246,1436889,17:44:31:108
0.0608,-0.0346,0.0801,42.45,5,1014.83,27.3,33.841,1437890,17:44:32:109
0.0311,-0.0323,0.0267,42.45,5,1014.84,27.3,34.961,1438890,17:44:33:109
0.0309,-0.0124,-0.0273,42.45,5,1014.82,27.3,34.922,1439889,17:44:34:108
0.0577,0.0201,0.0337,42.45,5,1014.82,27.3,32.781,1440890,17:44:35:109
0.0755,0.0264,-0.0264,42.45,5,1014.85,27.3,34.042,1441890,17:44:36:109
-0.0356,0.0269,-0.0277,42.45,5,1014.85,27.3,35.632,1442890,17:44:37:109
0.0413,4.00E-04,-0.0286,42.45,5,1014.86,27.3,33.978,1443889,17:44:38:108
-0.0265,-0.0296,-0.046,42.45,5,1014.85,27.3,32.57,1444890,17:44:39:109
-0.0059,-0.0465,-0.006,42.45,5,1014.83,27.3,35.35,1445889,17:44:40:108
0.055,-0.0555,-0.0171,42.45,5,1014.83,27.3,34.33,1446889,17:44:41:108
-0.0385,0.0029,-0.0391,42.45,5,1014.82,27.3,34.136,1447889,17:44:42:108
0.0416,-0.0068,0.031,42.45,5,1014.83,27.3,34.457,1448889,17:44:43:108
-0.0342,-0.027,-0.0019,42.45,5,1014.82,27.3,33.639,1449889,17:44:44:108
0.03,0.0305,-0.0516,42.45,5,1014.82,27.3,33.429,1450889,17:44:45:108
0.0085,-0.0351,-0.0585,42.45,5,1014.81,27.3,33.574,1451889,17:44:46:108
0.0345,0.0433,-0.081,42.45,5,1014.82,27.3,42.271,1452889,17:44:47:108
0.0271,0.0374,0.0978,42.45,5,1014.83,27.3,41.598,1453889,17:44:48:108
-0.0176,0.0497,-0.0079,42.45,5,1014.82,27.3,41.002,1454889,17:44:49:108
-0.0186,-0.0531,0.0119,42.45,5,1014.82,27.3,43.799,1455889,17:44:50:108
0.0216,0.0125,0.0625,42.45,5,1014.84,27.3,43.312,1456889,17:44:51:108
0.0034,0.006,0.0558,42.45,5,1014.84,27.3,43.485,1457890,17:44:52:109
-0.0313,0.0131,-0.0275,42.45,5,1014.84,27.3,43.15,1458890,17:44:53:109
0.0052,0.0379,0.0479,42.45,5,1014.84,27.3,43.694,1459889,17:44:54:108
-0.0112,0.0055,0.0165,42.45,5,1014.85,27.3,42.733,1460889,17:44:55:108
-0.0225,0.0149,-0.0311,42.45,5,1014.84,27.3,42.849,1461889,17:44:56:108
-0.0319,0.0112,0.0307,42.45,5,1014.84,27.3,43.959,1462889,17:44:57:108
0.0261,-0.0421,0.0099,42.45,5,1014.83,27.3,43.758,1463890,17:44:58:109
0.0018,-0.0037,-0.0118,42.45,5,1014.86,27.3,38.905,1464889,17:44:59:108
0.0086,0.0375,-0.0357,42.45,5,1014.86,27.3,41.86,1465889,17:45:00:108
0.0188,-0.05,-0.0352,42.45,5,1014.86,27.3,38.618,1466890,17:45:01:109
0.0035,0.035,-0.0263,42.45,5,1014.87,27.3,40.176,1467889,17:45:02:108
0.0109,-0.0475,-0.0214,42.45,5,1014.86,27.3,41.493,1468889,17:45:03:108
-0.0321,0.0145,0.0191,42.45,5,1014.86,27.3,42.132,1469889,17:45:04:108
0.0284,0.0053,0.0219,42.45,5,1014.86,27.3,36.351,1470889,17:45:05:108
-0.0181,0.0045,-0.0177,42.45,5,1014.83,27.3,38.713,1471889,17:45:06:108
0.0398,0.0554,0.0363,42.45,5,1014.85,27.3,40.255,1472889,17:45:07:108
0.0529,0.011,-0.0014,42.45,5,1014.85,27.3,44.524,1473889,17:45:08:108
0.0269,-0.0045,-0.0203,42.45,5,1014.86,27.3,45.848,1474889,17:45:09:108
-0.0192,-0.0024,0.0263,42.45,5,1015.21,27.3,46.741,1475889,17:45:10:108
-0.018,-0.0126,0.0043,42.45,5,1015.42,27.3,42.917,1476889,17:45:11:108
0.0539,-0.0177,0.0532,42.45,5,1015.25,27.4,42.908,1477889,17:45:12:108
-0.0486,0.0543,0.0841,42.45,5,1015.31,27.4,42.115,1478889,17:45:13:108
0.0268,0.0313,-0.0569,42.45,5,1015.27,27.5,44.991,1479889,17:45:14:108
-0.0049,-0.0133,-0.0098,42.45,5,1015.18,27.5,46.121,1480889,17:45:15:108
-0.0123,-0.0053,-0.0602,42.45,5,1015.08,27.5,44.737,1481889,17:45:16:108
0.0198,-0.0238,-0.0914,42.45,5,1014.96,27.5,43.882,1482889,17:45:17:108
0.0278,0.0187,0.0015,42.45,5,1014.87,27.5,44.605,1483890,17:45:18:109
0.0172,-0.0206,-0.0129,42.45,5,1014.84,27.5,44.07,1484889,17:45:19:108
-0.0012,0.035,0.05,42.45,5,1014.83,27.5,44.3,1485889,17:45:20:108
0.0173,-0.0195,0.051,42.45,5,1014.78,27.5,42.123,1486889,17:45:21:108
0.0108,-0.0295,0.019,42.45,5,1014.74,27.5,43.028,1487889,17:45:22:108
0.0383,-0.0179,-0.0105,42.45,5,1014.73,27.5,44.762,1488890,17:45:23:109
0.0323,-0.0128,0.0065,42.45,5,1014.76,27.5,44.503,1489889,17:45:24:108
-0.0578,0.0277,-0.0187,42.45,5,1014.78,27.5,44.322,1490890,17:45:25:109
0.0575,-0.0519,-0.0013,42.45,5,1014.76,27.5,44.032,1491889,17:45:26:108
-0.006,0.0578,0.0197,42.45,5,1014.77,27.5,42.143,1492889,17:45:27:108
0.0024,0.0199,0.0554,42.45,5,1014.85,27.4,43.6,1493890,17:45:28:109
-0.028,-0.0107,-0.0098,42.45,5,1014.81,27.5,44.729,1494889,17:45:29:108
-0.018,-0.027,-0.0184,42.45,5,1014.81,27.4,43.585,1495889,17:45:30:108
0.0992,-0.0392,0.0123,42.45,5,1014.79,27.4,44.534,1496889,17:45:31:108
-0.0155,0.037,0.0111,42.45,5,1014.79,27.4,43.117,1497889,17:45:32:108
-0.0101,0.0319,0.0255,42.45,5,1014.78,27.4,43.103,1498889,17:45:33:108
0.0415,-0.0145,0.0161,42.45,5,1014.78,27.4,42.918,1499889,17:45:34:108
0.0472,0.0055,-0.0301,42.45,5,1014.77,27.4,43.432,1500889,17:45:35:108
0.0079,-0.0279,-0.003,42.45,5,1014.78,27.4,43.221,1501890,17:45:36:109
-0.0224,3.00E-04,-0.041,42.45,5,1014.78,27.4,44.368,1502889,17:45:37:108
0.0282,-0.0216,-0.0323,42.45,5,1014.77,27.4,43.008,1503889,17:45:38:108
0.0342,0.0271,-0.0128,42.45,5,1014.79,27.4,43.986,1504890,17:45:39:109
0.0172,0.0122,0.0914,42.45,5,1014.77,27.4,43.559,1505890,17:45:40:109
-0.0025,-0.0037,-0.0082,42.45,5,1014.83,27.4,44.809,1506889,17:45:41:108
0.0206,-0.0472,0.0611,42.45,5,1014.81,27.4,45.43,1507889,17:45:42:108
-0.0063,-3.00E-04,-0.0248,42.45,5,1014.81,27.4,43.555,1508889,17:45:43:108
0.0293,-0.014,-0.0502,42.45,5,1014.8,27.4,45.196,1509889,17:45:44:108
0.0035,-0.024,0.0674,42.45,5,1014.8,27.4,42.966,1510889,17:45:45:108
-0.0342,-0.0443,-0.0405,42.45,5,1014.81,27.4,44.246,1511889,17:45:46:108
-0.0595,0.0328,-0.0086,42.45,5,1014.82,27.4,42.05,1512890,17:45:47:109
-0.0343,-0.0054,-0.0491,42.45,5,1014.83,27.4,44.217,1513889,17:45:48:108
0.0607,-0.0225,0.0022,42.45,5,1014.84,27.4,43.567,1514890,17:45:49:109
0.0125,0.0172,-0.0267,42.45,5,1014.84,27.4,44.002,1515890,17:45:50:109
-0.0145,-0.0203,-0.0341,42.45,5,1014.86,27.4,44.988,1516892,17:45:51:111
-0.008,0.0332,-0.0078,42.45,5,1014.86,27.3,46.232,1517890,17:45:52:109
0.0224,0.001,-0.0168,42.45,5,1014.87,27.3,42.439,1518889,17:45:53:108
-0.0019,0.0115,0.0402,42.45,5,1014.88,27.3,42.592,1519890,17:45:54:109
-0.0462,-0.0194,0.0548,42.45,5,1014.88,27.3,42.62,1520890,17:45:55:109
-0.0406,0.0084,-0.057,42.45,5,1014.88,27.3,41.545,1521889,17:45:56:108
0.0035,-0.0227,-0.1083,42.45,5,1014.86,27.3,41.896,1522889,17:45:57:108
0.0014,-0.0627,0.0039,42.45,5,1014.87,27.3,42.36,1523889,17:45:58:108
-0.0158,0.0259,-0.0203,42.45,5,1014.87,27.3,43.977,1524889,17:45:59:108
-0.0049,0.0568,-0.0413,42.45,5,1014.87,27.3,44.594,1525890,17:46:00:109
-0.0107,-0.0048,-8.00E-04,42.45,5,1014.87,27.3,42.686,1526889,17:46:01:108
0.0136,0.0187,-0.0863,42.45,5,1014.84,27.3,42.806,1527889,17:46:02:108
0.0522,3.00E-04,0.0591,42.45,5,1014.82,27.3,41.568,1528889,17:46:03:108
0.0444,0.0119,-0.0452,42.45,5,1014.82,27.3,35.334,1529889,17:46:04:108
8.00E-04,0.0158,-0.0168,42.45,5,1014.8,27.3,37.072,1530889,17:46:05:108
0.013,-0.0064,-0.0033,42.45,5,1014.81,27.3,38.133,1531889,17:46:06:108
0.028,-0.0597,0.0353,42.45,5,1014.82,27.3,36.104,1532890,17:46:07:109
0.0041,0.0031,-0.0244,42.45,5,1014.79,27.3,34.43,1533889,17:46:08:108
0.0089,-0.0165,0.003,42.45,5,1014.81,27.3,34.375,1534889,17:46:09:108
0.008,-0.0213,-0.0946,42.45,5,1014.81,27.3,34.168,1535890,17:46:10:109
-0.0581,-0.034,-0.0422,42.45,5,1014.81,27.3,33.879,1536889,17:46:11:108
0.0325,-0.0208,-0.0052,42.45,5,1014.81,27.3,34.905,1537889,17:46:12:108
0.0196,-0.0114,0.0049,42.45,5,1014.83,27.3,33.399,1538889,17:46:13:108
-0.0736,-0.0039,0.025,42.45,5,1014.79,27.3,35.942,1539889,17:46:14:108
0.0034,-0.0323,0.0454,42.45,5,1014.81,27.3,37.777,1540889,17:46:15:108
-0.0015,0.0226,0.0469,42.45,5,1014.81,27.3,35.898,1541889,17:46:16:108
0.0583,0.0223,2.00E-04,42.45,5,1014.83,27.3,38.613,1542890,17:46:17:109
0.0025,0.008,-0.0379,42.45,5,1014.78,27.3,36.859,1543889,17:46:18:108
0.0239,0.0434,-0.0795,42.45,5,1014.83,27.3,40.267,1544889,17:46:19:108
0.0284,-0.0096,-0.0366,42.45,5,1014.8,27.3,46.2,1545890,17:46:20:109
0.0399,-0.0048,-0.039,42.45,5,1014.8,27.3,42.996,1546890,17:46:21:109
-0.0068,0.0089,0.0151,42.45,5,1014.81,27.3,35.16,1547889,17:46:22:108
0.0086,-0.0119,-0.0398,42.45,5,1014.82,27.3,39.685,1548890,17:46:23:109
0.0602,0.0355,-0.0047,42.45,5,1014.8,27.3,43.207,1549889,17:46:24:108
0.0107,0.0526,-0.064,42.45,5,1014.8,27.3,43.965,1550889,17:46:25:108
0.0302,0.0228,-0.0448,42.45,5,1014.8,27.3,42.498,1551890,17:46:26:109
-0.0582,0.0063,-0.0088,42.45,5,1014.82,27.3,40.242,1552889,17:46:27:108
0.0419,0.0469,-0.0367,42.45,5,1014.82,27.3,35.034,1553889,17:46:28:108
0.0214,0.0075,-0.0128,42.45,5,1014.8,27.3,36.651,1554889,17:46:29:108
-0.0076,-0.0081,-0.0519,42.45,5,1014.8,27.3,43.941,1555890,17:46:30:109
0.0194,-0.0346,-0.0661,42.45,5,1014.82,27.3,40.335,1556889,17:46:31:108
0.0514,-0.0239,0.0166,42.45,5,1014.81,27.3,44.512,1557889,17:46:32:108
-0.0246,0.0014,0.0597,42.45,5,1014.81,27.3,43.827,1558889,17:46:33:108
0.0084,0.0503,-0.007,42.45,5,1014.81,27.3,42.706,1559890,17:46:34:109
-0.0025,7.00E-04,-0.0397,42.45,5,1014.81,27.3,43.788,1560890,17:46:35:109
-0.0512,0.0019,0.0441,42.45,5,1014.82,27.3,42.516,1561889,17:46:36:108
-0.0466,-0.0143,0.0055,42.45,5,1014.81,27.3,42.227,1562889,17:46:37:108
0.0195,-0.0217,0.0369,42.45,5,1014.83,27.3,44.638,1563889,17:46:38:108
-0.0143,-0.0241,0.0854,42.45,5,1014.8,27.3,38.715,1564888,17:46:39:107
0.0101,0.0125,0.0274,42.45,5,1014.81,27.3,46.38,1565889,17:46:40:108
0.0212,0.0307,-0.0301,42.45,5,1014.82,27.3,43.248,1566890,17:46:41:109
-0.0253,0.0319,0.0551,42.45,5,1014.83,27.2,40.076,1567889,17:46:42:108
-0.0282,-0.0239,-0.0386,42.45,5,1014.81,27.2,43.64,1568889,17:46:43:108
0.0351,0.0505,0.0088,42.45,5,1014.81,27.2,37.826,1569890,17:46:44:109
0.0585,0.0279,0.0121,42.45,5,1014.83,27.2,45.302,1570889,17:46:45:108
-0.0248,-0.0018,-0.0144,42.45,5,1014.81,27.2,42.747,1571890,17:46:46:109
-0.0334,0.0249,0.0572,42.45,5,1014.9,27.2,44.554,1572889,17:46:47:108
0.0126,-0.029,-0.0491,42.45,5,1014.95,27.3,41.941,1573889,17:46:48:108
-0.0169,0.0108,0.0024,42.45,5,1014.91,27.3,44.002,1574889,17:46:49:108
-0.0083,0.0465,-0.0552,42.45,5,1014.85,27.3,47.331,1575889,17:46:50:108
0.03,-0.0218,-0.0086,42.45,5,1014.87,27.3,45.539,1576889,17:46:51:108
-0.006,0.0139,-0.0477,42.45,5,1014.86,27.3,44.256,1577890,17:46:52:109
0.035,-0.0159,0.0119,42.45,5,1015.05,27.3,43.726,1578889,17:46:53:108
0.0238,-0.037,-0.0349,42.45,5,1015.02,27.3,43.861,1579889,17:46:54:108
-0.0242,-0.0263,-0.0187,42.45,5,1014.99,27.3,45.64,1580889,17:46:55:108
-0.0093,0.0194,-0.0612,42.45,5,1014.91,27.3,45.137,1581889,17:46:56:108
-0.0138,-0.0448,-0.0294,42.45,5,1014.89,27.3,40.989,1582889,17:46:57:108
-0.0217,0.0041,-0.0034,42.45,5,1014.9,27.3,44.13,1583890,17:46:58:109
0.0141,0.0168,0.0376,42.45,5,1014.87,27.3,45.416,1584889,17:46:59:108
0.0352,-0.0325,-0.0375,42.45,5,1014.87,27.3,46.545,1585889,17:47:00:108
0.0118,0.0082,0.0232,42.45,5,1014.88,27.3,42.716,1586889,17:47:01:108
-0.0194,-0.0082,-0.0178,42.45,5,1014.87,27.3,44.796,1587889,17:47:02:108
-0.0057,0.0543,-0.0582,42.45,5,1014.86,27.3,45.848,1588889,17:47:03:108
0.0161,-0.0113,0.0546,42.45,5,1014.85,27.3,44.522,1589890,17:47:04:109
0.0198,0.0202,-0.0062,42.45,5,1014.85,27.3,45.159,1590894,17:47:05:113
-0.0292,-0.0069,0.0032,42.45,5,1014.87,27.3,46.563,1591890,17:47:06:109
0.0028,0.0293,0.0063,42.45,5,1014.83,27.3,44.3,1592889,17:47:07:108
-0.0613,0.0156,-0.0037,42.45,5,1014.87,27.3,46.229,1593889,17:47:08:108
-0.03,0.0011,0.0442,42.45,5,1014.85,27.3,43.469,1594889,17:47:09:108
0.0112,-0.0234,-0.0294,42.45,5,1014.84,27.3,43.897,1595889,17:47:10:108
-0.0642,0.0224,0.0169,42.45,5,1014.86,27.3,45.41,1596889,17:47:11:108
-0.0091,0.0452,0.0606,42.45,5,1014.84,27.3,36.645,1597890,17:47:12:109
-0.045,-0.0062,0.0389,42.45,5,1014.82,27.3,37.708,1598889,17:47:13:108
-0.0101,-0.0223,-0.0392,42.45,5,1014.83,27.3,42.586,1599890,17:47:14:109
0.0052,-0.027,-0.0495,42.45,5,1014.83,27.3,44.062,1600890,17:47:15:109
-0.0117,0.0195,-0.0364,42.45,5,1014.83,27.3,40.931,1601889,17:47:16:108
-0.0101,-0.0446,-0.0267,42.45,5,1014.81,27.3,41.844,1602889,17:47:17:108
-0.0458,-0.0296,-0.0082,42.45,5,1014.84,27.3,36.602,1603890,17:47:18:109
0.025,-0.0587,-0.06,42.45,5,1014.85,27.2,44.453,1604889,17:47:19:108
-1.00E-04,-0.0558,0.0571,42.45,5,1014.83,27.2,45.023,1605889,17:47:20:108
0.0027,-0.0135,0.0019,42.45,5,1014.85,27.2,39.985,1606889,17:47:21:108
0.0113,-0.0324,-0.0206,42.45,5,1014.82,27.2,40.028,1607889,17:47:22:108
-0.0111,-0.0616,-0.0797,42.45,5,1014.84,27.2,46.524,1608889,17:47:23:108
0.0506,-0.0468,0.0092,42.45,5,1014.81,27.2,41.402,1609890,17:47:24:109
0.0343,-0.0158,-0.0425,42.45,5,1014.82,27.2,34.454,1610889,17:47:25:108
0.0098,0.013,-0.0141,42.45,5,1014.82,27.2,42.161,1611889,17:47:26:108
0.026,-0.0243,-0.0411,42.45,5,1014.82,27.2,43.03,1612889,17:47:27:108
0.0102,-0.0141,-0.0189,42.45,5,1014.8,27.2,42.288,1613889,17:47:28:108
0.0215,0.0158,-0.0011,42.45,5,1014.77,27.2,37.498,1614889,17:47:29:108
0.0192,0.0303,0.0509,42.45,5,1014.81,27.2,42.613,1615889,17:47:30:108
0.0302,0.0125,0.011,42.45,5,1014.81,27.2,43.573,1616889,17:47:31:108
-0.008,0.0056,0.0769,42.45,5,1014.91,27.2,39.162,1617889,17:47:32:108
0.0043,0.0162,0.0319,42.45,5,1014.91,27.2,41.404,1618889,17:47:33:108
0.0181,0.0251,-0.0422,42.45,5,1014.88,27.2,42.216,1619889,17:47:34:108
-0.0546,-0.052,-0.0332,42.45,5,1014.87,27.2,40.824,1620889,17:47:35:108
0.0106,0.0034,0.0473,42.45,5,1014.84,27.2,43.352,1621889,17:47:36:108
-0.0199,0.0669,-0.0442,42.45,5,1014.87,27.2,41.749,1622890,17:47:37:109
0.0177,-0.0541,-0.048,42.45,5,1014.85,27.2,44.13,1623890,17:47:38:109
0.0013,0.0049,0.0275,42.45,5,1014.87,27.2,44.02,1624889,17:47:39:108
-0.061,-0.0195,0.05,42.45,5,1014.88,27.2,43.263,1625891,17:47:40:110
-0.0773,0.051,0.0137,42.45,5,1014.88,27.2,43.041,1626889,17:47:41:108
0.0327,-0.0164,0.0314,42.45,5,1014.86,27.2,42.442,1627889,17:47:42:108
-0.0294,-0.0062,-0.0724,42.45,5,1014.89,27.2,45.393,1628889,17:47:43:108
0.0036,-4.00E-04,0.0317,42.45,5,1014.86,27.2,45.978,1629889,17:47:44:108
0.0498,0.0613,0.0234,42.45,5,1014.86,27.2,47.918,1630889,17:47:45:108
0.006,0.0432,0.0268,42.45,5,1014.88,27.2,44.883,1631889,17:47:46:108
-0.0022,0.0436,-0.0299,42.45,5,1014.89,27.2,44.303,1632889,17:47:47:108
-0.0343,0.0291,-0.0346,42.45,5,1014.87,27.2,46.005,1633889,17:47:48:108
0.0496,0.0163,0.036,42.45,5,1014.9,27.2,45.388,1634889,17:47:49:108
0.0307,-0.0097,0.0565,42.45,5,1014.88,27.2,44.669,1635889,17:47:50:108
-0.0243,-0.0166,-0.0064,42.45,5,1014.89,27.2,44.318,1636889,17:47:51:108
-0.0093,0.0893,0.0389,42.45,5,1014.88,27.2,44.357,1637889,17:47:52:108
0.0041,0.0148,0.0248,42.45,5,1014.89,27.2,46.44,1638890,17:47:53:109
0.0261,-0.0018,0.0019,42.45,5,1014.88,27.2,44.916,1639890,17:47:54:109
0.0057,-0.0349,0.0215,42.45,5,1014.88,27.2,45.801,1640890,17:47:55:109
0.0134,0.0356,-0.038,42.45,5,1014.85,27.2,45.085,1641889,17:47:56:108
-0.0085,-0.0316,0.0012,42.45,5,1014.84,27.2,45.006,1642889,17:47:57:108
-0.0221,-0.0289,0.0024,42.45,5,1014.82,27.2,45.537,1643889,17:47:58:108
0.0122,-0.0862,-0.0799,42.45,5,1014.81,27.2,44.616,1644890,17:47:59:109
0.035,-0.0393,0.0343,42.45,5,1014.8,27.2,44.312,1645889,17:48:00:108
0.0735,-0.0098,-0.0619,42.45,5,1014.8,27.2,45.54,1646889,17:48:01:108
-0.0332,0.0293,-0.0197,42.45,5,1014.79,27.2,45.506,1647890,17:48:02:109
0.0355,0.0267,0.0089,42.45,5,1014.77,27.2,43.909,1648889,17:48:03:108
-0.0042,0.0158,0.0517,42.45,5,1014.8,27.2,44.352,1649889,17:48:04:108
0.0028,0.0603,0.0464,42.45,5,1014.8,27.2,46.686,1650889,17:48:05:108
0.0348,-9.00E-04,-0.0137,42.45,5,1014.77,27.2,36.998,1651890,17:48:06:109
-0.0961,-0.0298,-0.0873,42.45,5,1014.79,27.2,34.965,1652889,17:48:07:108
-0.033,0.022,-0.017,38.2,5,1014.8,27.2,45.539,1653890,17:48:08:109
0.0036,-0.027,0.0052,38.2,5,1015.21,27.2,35.669,1654889,17:48:09:108
0.0011,0.0041,-0.0702,38.2,5,1015.71,27.2,41.81,1655889,17:48:10:108
-0.0257,0.0014,-0.0474,38.2,5,1015.57,27.3,42.786,1656889,17:48:11:108
0.013,0.0351,-0.0048,38.2,5,1015.34,27.4,36.885,1657889,17:48:12:108
-0.0233,-0.0411,0.0616,38.2,5,1015.13,27.4,44.982,1658889,17:48:13:108
0.0053,-0.0417,-0.0256,38.2,5,1015.03,27.4,35.67,1659890,17:48:14:109
-0.0277,-0.0016,-0.0212,38.2,5,1014.94,27.4,35.298,1660889,17:48:15:108
0.0125,0.0184,-0.0186,38.2,5,1014.88,27.4,44.138,1661889,17:48:16:108
-0.0055,0.0351,-0.0515,38.2,5,1014.85,27.4,38.137,1662889,17:48:17:108
0.0084,0.0229,-0.043,38.2,5,1014.79,27.4,40.177,1663890,17:48:18:109
0.0089,0.0135,-0.0102,38.2,5,1014.79,27.4,43.353,1664889,17:48:19:108
0.0205,-0.0154,-0.1332,38.2,5,1014.78,27.4,35.785,1665890,17:48:20:109
-0.0065,0.0215,-0.0044,38.2,5,1014.75,27.4,35.022,1666889,17:48:21:108
0.007,0.0025,0.0315,38.2,5,1014.78,27.4,45.902,1667889,17:48:22:108
0.0222,-0.0188,-0.0063,38.2,5,1014.76,27.4,34.29,1668889,17:48:23:108
-0.0049,-0.0025,-0.0469,38.2,5,1014.77,27.3,46.266,1669889,17:48:24:108
-0.0411,-0.0176,-0.001,38.2,5,1014.76,27.3,36.308,1670889,17:48:25:108
-0.0058,0.0215,0.0814,38.2,5,1014.79,27.3,34.134,1671890,17:48:26:109
-0.0159,-0.0576,-0.1017,38.2,5,1014.8,27.3,45.068,1672889,17:48:27:108
0.0507,0.0571,0.0014,38.2,5,1014.78,27.3,37.632,1673889,17:48:28:108
-7.00E-04,0.0177,0.038,38.2,5,1014.78,27.3,46.49,1674889,17:48:29:108
0.066,-0.0085,-0.0448,38.2,5,1014.79,27.3,38.286,1675889,17:48:30:108
-0.0239,0.0093,-5.00E-04,38.2,5,1014.8,27.3,36.133,1676889,17:48:31:108
0.032,-0.0181,0.0536,38.2,5,1014.8,27.3,40.969,1677890,17:48:32:109
-0.0403,0.0353,5.00E-04,38.2,5,1014.82,27.3,43.514,1678889,17:48:33:108
0.012,-0.0079,0.0642,38.2,5,1014.81,27.3,34.555,1679890,17:48:34:109
0.0336,0.0146,-0.0103,38.2,5,1014.79,27.3,44.758,1680889,17:48:35:108
-0.0134,0.0382,0.0157,38.2,5,1014.8,27.3,34.954,1681890,17:48:36:109
-0.0097,0.0142,0.0595,38.2,5,1014.79,27.3,35.381,1682890,17:48:37:109
-0.0172,-0.0302,-0.0309,38.2,5,1014.79,27.2,45.939,1683890,17:48:38:109
0.029,0.0289,-0.007,38.2,5,1014.81,27.2,34.274,1684889,17:48:39:108
-0.0269,-0.0478,-0.0498,38.2,5,1014.81,27.2,44.088,1685889,17:48:40:108
-0.0214,-0.0236,6.00E-04,38.2,5,1014.8,27.2,34.292,1686890,17:48:41:109
0.0404,0.0379,0.0093,38.2,5,1014.82,27.2,34.261,1687889,17:48:42:108
4.00E-04,-0.0277,0.0589,38.2,5,1014.81,27.2,46.321,1688890,17:48:43:109
-0.0279,0.0156,-0.0417,38.2,5,1014.81,27.2,36.918,1689889,17:48:44:108
0.037,0.0109,-0.0056,38.2,5,1014.81,27.2,35.244,1690890,17:48:45:109
-0.0448,-0.0093,-0.014,38.2,5,1014.82,27.2,46.047,1691889,17:48:46:108
0.0045,0.0084,-0.0177,38.2,5,1014.83,27.2,34.512,1692890,17:48:47:109
0.0039,0.015,0.0125,38.2,5,1014.83,27.2,35.862,1693889,17:48:48:108
0.001,0.0396,0.0496,38.2,5,1014.87,27.2,42.792,1694890,17:48:49:109
-0.0041,0.009,0.0229,38.2,5,1014.85,27.2,35.248,1695889,17:48:50:108
-0.0219,-0.0016,0.0169,38.2,5,1014.87,27.2,46.718,1696890,17:48:51:109
0.0734,0.0207,-0.0456,38.2,5,1014.88,27.2,35.554,1697890,17:48:52:109
-0.0245,0.0233,-0.0146,38.2,5,1014.85,27.2,34.808,1698891,17:48:53:110
-0.0574,0.0319,-0.0064,38.2,5,1014.88,27.2,45.956,1699889,17:48:54:108
0.0451,0.0012,-0.0135,38.2,5,1014.88,27.2,34.443,1700889,17:48:55:108
-0.0017,0.028,0.005,38.2,5,1014.9,27.2,44.096,1701889,17:48:56:108
0.0425,0.0071,0.0239,38.2,5,1014.87,27.2,42.55,1702890,17:48:57:109
-0.0173,0.0107,-0.0386,38.2,5,1014.91,27.2,32.999,1703889,17:48:58:108
0.0526,-0.0176,0.004,38.2,5,1014.89,27.2,34.538,1704890,17:48:59:109
0.0329,-0.0382,-0.0026,38.2,5,1014.91,27.2,45.347,1705889,17:49:00:108
-0.0625,-0.0424,0.0681,38.2,5,1014.91,27.2,35.283,1706890,17:49:01:109
0.0433,0.0023,-0.0055,38.2,5,1014.9,27.2,46.697,1707889,17:49:02:108
0.0132,-0.0104,0.0513,38.2,5,1014.92,27.2,36.837,1708889,17:49:03:108
-6.00E-04,-0.0224,-0.0084,38.2,5,1014.9,27.2,34.102,1709889,17:49:04:108
-0.0176,0.0377,0.032,38.2,5,1014.9,27.2,47.764,1710889,17:49:05:108
-0.025,0.0118,-0.0714,38.2,5,1014.89,27.2,39.237,1711890,17:49:06:109
-0.0507,-0.0395,0.0495,38.2,5,1014.89,27.2,47.566,1712889,17:49:07:108
-0.0045,0.0039,-0.0425,38.2,5,1014.87,27.2,38.121,1713889,17:49:08:108
0.0344,0.0354,-0.0775,38.2,5,1014.89,27.2,33.178,1714889,17:49:09:108
-0.0239,0.0214,0.0649,38.2,5,1014.89,27.2,43.974,1715889,17:49:10:108
-0.0656,2.00E-04,0.008,38.2,5,1014.91,27.2,43.611,1716889,17:49:11:108
-0.0224,0.0314,-0.0294,38.2,5,1014.93,27.2,35.602,1717889,17:49:12:108
-0.0357,0.0391,0.0453,38.2,5,1014.93,27.2,47.589,1718890,17:49:13:109
0.0376,0.0232,0.0053,38.2,5,1014.93,27.2,34.017,1719889,17:49:14:108
-0.0184,0.0032,-0.0083,38.2,5,1014.94,27.2,35.14,1720890,17:49:15:109
0.0623,-0.0329,0.0713,38.2,5,1014.94,27.2,46.999,1721889,17:49:16:108
0.0578,-0.0187,-8.00E-04,38.2,5,1014.96,27.2,35.653,1722889,17:49:17:108
-0.0283,-0.0231,-0.0417,38.2,5,1014.93,27.2,44.976,1723889,17:49:18:108
-0.0181,-0.0181,0.0122,38.2,5,1014.95,27.2,37.379,1724890,17:49:19:109
0.0337,-0.0093,0.0135,38.2,5,1014.92,27.2,34.382,1725889,17:49:20:108
-0.0141,0,0.0155,38.2,5,1014.93,27.2,47.665,1726889,17:49:21:108
0.0372,0.0354,-0.0066,38.2,5,1014.93,27.2,36.887,1727889,17:49:22:108
0.0184,-0.0421,-0.0703,38.2,5,1014.91,27.2,34.569,1728890,17:49:23:109
-5.00E-04,-0.0265,0.0169,38.2,5,1014.94,27.2,46.56,1729889,17:49:24:108
-0.0235,0.0054,0.015,38.2,5,1014.94,27.2,35.067,1730890,17:49:25:109
0.0259,0.009,0.007,38.2,5,1014.92,27.2,36.769,1731889,17:49:26:108
0.048,-0.0106,0.0439,38.2,5,1014.93,27.2,48.315,1732890,17:49:27:109
0.0375,-0.0459,-0.0685,38.2,5,1014.92,27.2,36.424,1733890,17:49:28:109
-0.0205,-0.0068,0.0199,38.2,5,1014.91,27.2,48.346,1734890,17:49:29:109
-0.0324,-0.0073,0.0139,38.2,5,1014.93,27.2,35.518,1735889,17:49:30:108
0.0317,0.0011,-0.0977,38.2,5,1014.9,27.2,36.171,1736890,17:49:31:109
0.0396,0.0116,-0.0676,38.2,5,1014.91,27.2,47.255,1737890,17:49:32:109
0.0436,0.0357,-0.0245,38.2,5,1014.89,27.2,37.851,1738891,17:49:33:110
-0.0086,-0.0057,0.0468,38.2,5,1014.92,27.2,45.783,1739889,17:49:34:108
0.0075,-0.0037,-0.0288,38.2,5,1014.9,27.2,41.722,1740890,17:49:35:109
-0.0106,0.0379,0.0522,38.2,5,1014.92,27.2,33.716,1741889,17:49:36:108
0.0264,0.0052,-0.0204,38.2,5,1014.91,27.2,38.148,1742889,17:49:37:108
-0.0224,0.0144,-0.0393,38.2,5,1014.9,27.2,46.799,1743889,17:49:38:108
0.046,-0.0338,-0.0112,38.2,5,1014.9,27.2,43.091,1744889,17:49:39:108
0.0732,-0.0349,0.1082,38.2,5,1014.92,27.1,49.407,1745889,17:49:40:108
0.0584,-0.0297,0.0369,38.2,5,1014.9,27.1,41.777,1746889,17:49:41:108
